A,B,C,D,DotDur,E,F,G,H,ISIdur,NumDur,acc,accuracy,average_response_time,avg_rt,background,bidi,canvas_backend,clock_backend,color_backend,compensation,condition,coordinates,correct,count_ISI,count_digit_loop_1,count_dot,count_experiment,count_get_input_digits,count_get_input_letters,count_get_input_loop_1,count_get_input_loop_2,count_get_input_sequence_1,count_get_input_sequence_2,count_init_1,count_init_2,count_intro_1,count_letter_loop_1,count_number_input_1,count_number_input_2,count_osweb,count_process_input_1,count_process_input_2,count_report_1,count_report_2,count_response_logger_1,count_response_logger_2,count_set_time_vars,count_stimA_1,count_stimA_2,count_stimB_1,count_stimB_2,count_stimC_1,count_stimC_2,count_stimD_1,count_stimD_2,count_stimE_1,count_stimE_2,count_stimF_1,count_stimF_2,count_stimG_1,count_stimG_2,count_stimH_1,count_stimH_2,count_trial_sequence_1,count_trial_sequence_2,datetime,description,disable_garbage_collection,empty_column,experiment_path,font_bold,font_family,font_italic,font_size,font_underline,foreground,form_clicks,fullscreen,height,keyboard_backend,mouse_backend,multichar_response,opensesame_codename,opensesame_version,response,response_intro_1,response_number_input_1,response_number_input_2,response_time,response_time_intro_1,response_time_number_input_1,response_time_number_input_2,round_decimals,sampler_backend,sessionid,sound_buf_size,sound_channels,sound_freq,sound_sample_size,span,start,subject_nr,subject_parity,time_ISI,time_digit_loop_1,time_dot,time_get_input_digits,time_get_input_letters,time_get_input_loop_1,time_get_input_loop_2,time_init_1,time_init_2,time_intro_1,time_letter_loop_1,time_number_input_1,time_number_input_2,time_process_input_1,time_process_input_2,time_response_logger_1,time_response_logger_2,time_set_time_vars,time_stimA_1,time_stimA_2,time_stimB_1,time_stimB_2,time_stimC_1,time_stimC_2,time_stimD_1,time_stimD_2,time_stimE_1,time_stimE_2,time_stimF_1,time_stimF_2,time_stimG_1,time_stimG_2,title,total_correct,total_response_time,total_responses,uniform_coordinates,width
v,j,y,w,3000,w,w,w,w,500,750,0,0,1008,1008,black,no,legacy,legacy,legacy,0,letters,uniform,,6,0,0,0,,3,,0,,3,,0,0,0,,3,0,,3,,0,,0,0,,0,,0,,0,,0,,0,,0,,0,,0,,0,Thu Sep 03 2020 08:33:41 GMT+0200 (Centraleuropæisk sommertid),The main experiment item,yes,,/Users/ethan/Documents/GitHub/OpenSesame/MemorySpan,no,mono,no,18,no,white,no,no,768,legacy,legacy,vjyenter,osweb,1.3.8,enter,space,,enter,784,19410,,784,2,legacy,1599114834532,1024,2,48000,-16,3,experiment,0,even,24848,29,25371,,31701,,19474,,19472,29,29,,31701,,32492,,32493,19451,,19474,,20729,,22014,,,,,,,,,MemorySpan_1,0,4033,4,yes,1024
z,v,y,w,3000,w,w,w,w,500,750,0,0,860,860,black,no,legacy,legacy,legacy,0,letters,uniform,,13,0,1,0,,7,,1,,7,,1,0,0,,7,0,,7,,1,,1,0,,1,,1,,1,,1,,1,,1,,1,,1,,1,Thu Sep 03 2020 08:33:41 GMT+0200 (Centraleuropæisk sommertid),The main experiment item,yes,,/Users/ethan/Documents/GitHub/OpenSesame/MemorySpan,no,mono,no,18,no,white,no,no,768,legacy,legacy,zvyenter,osweb,1.3.8,enter,space,,enter,887,19410,,887,2,legacy,1599114834532,1024,2,48000,-16,3,experiment,0,even,37911,29,38428,,43449,,32511,,32509,29,29,,43449,,44341,,44341,19451,,32511,,33793,,35077,,,,,,,,,MemorySpan_1,0,6879,8,yes,1024
z,x,m,y,3000,w,w,w,w,500,750,0,0,793,793,black,no,legacy,legacy,legacy,0,letters,uniform,,20,0,2,0,,12,,2,,12,,2,0,0,,12,0,,12,,2,,2,0,,2,,2,,2,,2,,2,,2,,2,,2,,2,Thu Sep 03 2020 08:33:41 GMT+0200 (Centraleuropæisk sommertid),The main experiment item,yes,,/Users/ethan/Documents/GitHub/OpenSesame/MemorySpan,no,mono,no,18,no,white,no,no,768,legacy,legacy,zxmyenter,osweb,1.3.8,enter,space,,enter,604,19410,,604,2,legacy,1599114834532,1024,2,48000,-16,4,experiment,0,even,50477,29,50995,,56897,,44357,,44355,29,29,,56897,,57505,,57506,19451,,44357,,45625,,46893,,48177,,,,,,,MemorySpan_1,0,10311,13,yes,1024
t,q,t,f,3000,w,w,w,w,500,750,0,0,696,696,black,no,legacy,legacy,legacy,0,letters,uniform,,27,0,3,0,,17,,3,,17,,3,0,0,,17,0,,17,,3,,3,0,,3,,3,,3,,3,,3,,3,,3,,3,,3,Thu Sep 03 2020 08:33:41 GMT+0200 (Centraleuropæisk sommertid),The main experiment item,yes,,/Users/ethan/Documents/GitHub/OpenSesame/MemorySpan,no,mono,no,18,no,white,no,no,768,legacy,legacy,tqtfenter,osweb,1.3.8,enter,space,,enter,378,19410,,378,2,legacy,1599114834532,1024,2,48000,-16,4,experiment,0,even,63660,29,64179,,69121,,57522,,57521,29,29,,69121,,69512,,69513,19451,,57522,,58790,,60074,,61342,,,,,,,MemorySpan_1,0,12530,18,yes,1024
d,y,v,f,3000,x,w,w,w,500,750,0,0,635,635,black,no,legacy,legacy,legacy,0,letters,uniform,,34,0,4,0,,23,,4,,23,,4,0,0,,23,0,,23,,4,,4,0,,4,,4,,4,,4,,4,,4,,4,,4,,4,Thu Sep 03 2020 08:33:41 GMT+0200 (Centraleuropæisk sommertid),The main experiment item,yes,,/Users/ethan/Documents/GitHub/OpenSesame/MemorySpan,no,mono,no,18,no,white,no,no,768,legacy,legacy,dyvfxenter,osweb,1.3.8,enter,space,,enter,733,19410,,733,2,legacy,1599114834532,1024,2,48000,-16,5,experiment,0,even,76438,29,76956,,82064,,69531,,69529,29,29,,82064,,82807,,82808,19451,,69531,,70813,,72097,,73381,,74648,,,,,MemorySpan_1,0,15250,24,yes,1024
i,m,v,t,3000,k,w,w,w,500,750,0,0,648,648,black,no,legacy,legacy,legacy,0,letters,uniform,,41,0,5,0,,29,,5,,29,,5,0,0,,29,0,,29,,5,,5,0,,5,,5,,5,,5,,5,,5,,5,,5,,5,Thu Sep 03 2020 08:33:41 GMT+0200 (Centraleuropæisk sommertid),The main experiment item,yes,,/Users/ethan/Documents/GitHub/OpenSesame/MemorySpan,no,mono,no,18,no,white,no,no,768,legacy,legacy,imvtkenter,osweb,1.3.8,enter,space,,enter,1238,19410,,1238,2,legacy,1599114834532,1024,2,48000,-16,5,experiment,0,even,89698,29,90215,,96309,,82824,,82822,29,29,,96309,,97548,,97549,19451,,82823,,84075,,85359,,86630,,87913,,,,,MemorySpan_1,0,19441,30,yes,1024
g,r,y,p,3000,y,r,w,w,500,750,0,0,610,610,black,no,legacy,legacy,legacy,0,letters,uniform,,48,0,6,0,,36,,6,,36,,6,0,0,,36,0,,36,,6,,6,0,,6,,6,,6,,6,,6,,6,,6,,6,,6,Thu Sep 03 2020 08:33:41 GMT+0200 (Centraleuropæisk sommertid),The main experiment item,yes,,/Users/ethan/Documents/GitHub/OpenSesame/MemorySpan,no,mono,no,18,no,white,no,no,768,legacy,legacy,grypyrenter,osweb,1.3.8,enter,space,,enter,781,19410,,781,2,legacy,1599114834532,1024,2,48000,-16,6,experiment,0,even,105236,29,105754,,111254,,97565,,97563,29,29,,111254,,112046,,112047,19451,,97565,,98833,,100100,,101384,,102668,,103952,,,MemorySpan_1,0,22583,37,yes,1024
i,m,u,u,3000,e,r,w,w,500,750,0,0,581,581,black,no,legacy,legacy,legacy,0,letters,uniform,,55,0,7,0,,43,,7,,43,,7,0,0,,43,0,,43,,7,,7,0,,7,,7,,7,,7,,7,,7,,7,,7,,7,Thu Sep 03 2020 08:33:41 GMT+0200 (Centraleuropæisk sommertid),The main experiment item,yes,,/Users/ethan/Documents/GitHub/OpenSesame/MemorySpan,no,mono,no,18,no,white,no,no,768,legacy,legacy,imuuerenter,osweb,1.3.8,enter,space,,enter,714,19410,,714,2,legacy,1599114834532,1024,2,48000,-16,6,experiment,0,even,119757,29,120275,,125685,,112064,,112062,29,29,,125685,,126408,,126408,19451,,112064,,113347,,114631,,115915,,117189,,118473,,,MemorySpan_1,0,25578,44,yes,1024
v,e,z,g,3000,s,q,l,w,500,750,0,0,634,634,black,no,legacy,legacy,legacy,0,letters,uniform,,62,0,8,0,,51,,8,,51,,8,0,0,,51,0,,51,,8,,8,0,,8,,8,,8,,8,,8,,8,,8,,8,,8,Thu Sep 03 2020 08:33:41 GMT+0200 (Centraleuropæisk sommertid),The main experiment item,yes,,/Users/ethan/Documents/GitHub/OpenSesame/MemorySpan,no,mono,no,18,no,white,no,no,768,legacy,legacy,vezglsqenter,osweb,1.3.8,enter,space,,enter,1508,19410,,1508,2,legacy,1599114834532,1024,2,48000,-16,7,experiment,0,even,134862,29,135379,,144467,,126424,,126422,29,29,,144467,,145990,,145991,19451,,126424,,127692,,128976,,130260,,131527,,132811,,134095,MemorySpan_1,0,32982,52,yes,1024
u,p,t,x,3000,i,p,f,w,500,750,0,0,744,744,black,no,legacy,legacy,legacy,0,letters,uniform,,69,0,9,0,,58,,9,,58,,9,0,0,,58,0,,58,,9,,9,0,,9,,9,,9,,9,,9,,9,,9,,9,,9,Thu Sep 03 2020 08:33:41 GMT+0200 (Centraleuropæisk sommertid),The main experiment item,yes,,/Users/ethan/Documents/GitHub/OpenSesame/MemorySpan,no,mono,no,18,no,white,no,no,768,legacy,legacy,uptxifenter,osweb,1.3.8,enter,space,,enter,1989,19410,,1989,2,legacy,1599114834532,1024,2,48000,-16,7,experiment,0,even,154459,29,154976,,167019,,146008,,146006,29,29,,167019,,169008,,169009,19451,,146008,,147274,,148558,,149841,,151124,,152408,,153692,MemorySpan_1,0,43895,59,yes,1024
3,9,5,w,3000,w,w,w,w,500,750,0,0,732,732,black,no,legacy,legacy,legacy,0,numbers,uniform,,76,0,10,0,3,58,0,9,3,58,0,9,0,0,3,58,0,3,58,0,9,0,9,0,0,9,0,9,0,9,0,9,0,9,0,9,0,9,0,9,0,9,Thu Sep 03 2020 08:33:41 GMT+0200 (Centraleuropæisk sommertid),The main experiment item,yes,,/Users/ethan/Documents/GitHub/OpenSesame/MemorySpan,no,mono,no,18,no,white,no,no,768,legacy,legacy,395enter,osweb,1.3.8,enter,space,enter,enter,1020,19410,1020,1989,2,legacy,1599114834532,1024,2,48000,-16,3,experiment,0,even,174402,29,174920,179230,167019,169025,146008,169024,146006,29,29,179230,167019,180253,169008,180254,169009,19451,169025,146008,170294,147274,171568,148558,,149841,,151124,,152408,,153692,MemorySpan_1,0,46126,63,yes,1024
1,8,3,w,3000,w,w,w,w,500,750,0,0,717,717,black,no,legacy,legacy,legacy,0,numbers,uniform,,83,0,11,0,7,58,1,9,7,58,1,9,0,0,7,58,0,7,58,1,9,1,9,0,1,9,1,9,1,9,1,9,1,9,1,9,1,9,1,9,1,9,Thu Sep 03 2020 08:33:41 GMT+0200 (Centraleuropæisk sommertid),The main experiment item,yes,,/Users/ethan/Documents/GitHub/OpenSesame/MemorySpan,no,mono,no,18,no,white,no,no,768,legacy,legacy,183enter,osweb,1.3.8,enter,space,enter,enter,711,19410,711,1989,2,legacy,1599114834532,1024,2,48000,-16,3,experiment,0,even,185643,29,186161,190403,167019,180268,146008,180267,146006,29,29,190403,167019,191129,169008,191129,169009,19451,180268,146008,181524,147274,182809,148558,,149841,,151124,,152408,,153692,MemorySpan_1,0,48016,67,yes,1024
6,5,5,4,3000,w,w,w,w,500,750,0,0,691,691,black,no,legacy,legacy,legacy,0,numbers,uniform,,90,0,12,0,12,58,2,9,12,58,2,9,0,0,12,58,0,12,58,2,9,2,9,0,2,9,2,9,2,9,2,9,2,9,2,9,2,9,2,9,2,9,Thu Sep 03 2020 08:33:41 GMT+0200 (Centraleuropæisk sommertid),The main experiment item,yes,,/Users/ethan/Documents/GitHub/OpenSesame/MemorySpan,no,mono,no,18,no,white,no,no,768,legacy,legacy,6554enter,osweb,1.3.8,enter,space,enter,enter,546,19410,546,1989,2,legacy,1599114834532,1024,2,48000,-16,4,experiment,0,even,197289,29,197806,202125,167019,191145,146008,191143,146006,29,29,202125,167019,202682,169008,202683,169009,19451,191145,146008,192420,147274,193687,148558,194971,149841,,151124,,152408,,153692,MemorySpan_1,0,49774,72,yes,1024
5,5,5,1,3000,w,w,w,w,500,750,0,0,674,674,black,no,legacy,legacy,legacy,0,numbers,uniform,,97,0,13,0,17,58,3,9,17,58,3,9,0,0,17,58,0,17,58,3,9,3,9,0,3,9,3,9,3,9,3,9,3,9,3,9,3,9,3,9,3,9,Thu Sep 03 2020 08:33:41 GMT+0200 (Centraleuropæisk sommertid),The main experiment item,yes,,/Users/ethan/Documents/GitHub/OpenSesame/MemorySpan,no,mono,no,18,no,white,no,no,768,legacy,legacy,5551enter,osweb,1.3.8,enter,space,enter,enter,776,19410,776,1989,2,legacy,1599114834532,1024,2,48000,-16,4,experiment,0,even,208834,29,209352,213761,167019,202698,146008,202697,146006,29,29,213761,167019,214552,169008,214552,169009,19451,202698,146008,203982,147274,205266,148558,206534,149841,,151124,,152408,,153692,MemorySpan_1,0,51870,77,yes,1024
5,2,4,1,3000,2,w,w,w,500,750,0,0,663,663,black,no,legacy,legacy,legacy,0,numbers,uniform,,104,0,14,0,23,58,4,9,23,58,4,9,0,0,23,58,0,23,58,4,9,4,9,0,4,9,4,9,4,9,4,9,4,9,4,9,4,9,4,9,4,9,Thu Sep 03 2020 08:33:41 GMT+0200 (Centraleuropæisk sommertid),The main experiment item,yes,,/Users/ethan/Documents/GitHub/OpenSesame/MemorySpan,no,mono,no,18,no,white,no,no,768,legacy,legacy,52412enter,osweb,1.3.8,enter,space,enter,enter,708,19410,708,1989,2,legacy,1599114834532,1024,2,48000,-16,5,experiment,0,even,221488,29,222009,227564,167019,214568,146008,214567,146006,29,29,227565,167019,228289,169008,228290,169009,19451,214568,146008,215852,147274,217135,148558,218403,149841,219688,151124,,152408,,153692,MemorySpan_1,0,55053,83,yes,1024
2,9,6,4,3000,6,w,w,w,500,750,0,0,681,681,black,no,legacy,legacy,legacy,0,numbers,uniform,,111,0,15,0,31,58,5,9,31,58,5,9,0,0,31,58,0,31,58,5,9,5,9,0,5,9,5,9,5,9,5,9,5,9,5,9,5,9,5,9,5,9,Thu Sep 03 2020 08:33:41 GMT+0200 (Centraleuropæisk sommertid),The main experiment item,yes,,/Users/ethan/Documents/GitHub/OpenSesame/MemorySpan,no,mono,no,18,no,white,no,no,768,legacy,legacy,29646enter,osweb,1.3.8,enter,space,enter,enter,2453,19410,2453,1989,2,legacy,1599114834532,1024,2,48000,-16,5,experiment,0,even,235243,29,235760,243401,167019,228307,146008,228306,146006,29,29,243401,167019,245857,169008,245858,169009,19451,228307,146008,229591,147274,230874,148558,232158,149841,233442,151124,,152408,,153692,MemorySpan_1,0,61996,91,yes,1024
4,3,3,6,3000,4,5,w,w,500,750,0,0,733,733,black,no,legacy,legacy,legacy,0,numbers,uniform,,118,0,16,0,37,58,6,9,37,58,6,9,0,0,37,58,0,37,58,6,9,6,9,0,6,9,6,9,6,9,6,9,6,9,6,9,6,9,6,9,6,9,Thu Sep 03 2020 08:33:41 GMT+0200 (Centraleuropæisk sommertid),The main experiment item,yes,,/Users/ethan/Documents/GitHub/OpenSesame/MemorySpan,no,mono,no,18,no,white,no,no,768,legacy,legacy,32496enter,osweb,1.3.8,enter,space,enter,enter,1766,19410,1766,1989,2,legacy,1599114834532,1024,2,48000,-16,6,experiment,0,even,253535,29,254054,264533,167019,245872,146008,245871,146006,29,29,264533,167019,266309,169008,266309,169009,19451,245872,146008,247132,147274,248416,148558,249699,149841,250983,151124,252250,152408,,153692,MemorySpan_1,0,71110,97,yes,1024
3,1,8,4,3000,4,4,w,w,500,750,0,0,713,713,black,no,legacy,legacy,legacy,0,numbers,uniform,,125,0,17,0,44,58,7,9,44,58,7,9,0,0,44,58,0,44,58,7,9,7,9,0,7,9,7,9,7,9,7,9,7,9,7,9,7,9,7,9,7,9,Thu Sep 03 2020 08:33:41 GMT+0200 (Centraleuropæisk sommertid),The main experiment item,yes,,/Users/ethan/Documents/GitHub/OpenSesame/MemorySpan,no,mono,no,18,no,white,no,no,768,legacy,legacy,318444enter,osweb,1.3.8,enter,space,enter,enter,716,19410,716,1989,2,legacy,1599114834532,1024,2,48000,-16,6,experiment,0,even,274009,29,274527,280036,167019,266324,146008,266323,146006,29,29,280036,167019,280760,169008,280760,169009,19451,266324,146008,267593,147274,268873,148558,270158,149841,271442,151124,272726,152408,,153692,MemorySpan_1,0,74189,104,yes,1024
6,3,9,9,3000,6,5,4,w,500,750,0,0,745,745,black,no,legacy,legacy,legacy,0,numbers,uniform,,132,0,18,0,51,58,8,9,51,58,8,9,0,0,51,58,0,51,58,8,9,8,9,0,8,9,8,9,8,9,8,9,8,9,8,9,8,9,8,9,8,9,Thu Sep 03 2020 08:33:41 GMT+0200 (Centraleuropæisk sommertid),The main experiment item,yes,,/Users/ethan/Documents/GitHub/OpenSesame/MemorySpan,no,mono,no,18,no,white,no,no,768,legacy,legacy,396144enter,osweb,1.3.8,enter,space,enter,enter,535,19410,535,1989,2,legacy,1599114834532,1024,2,48000,-16,7,experiment,0,even,289214,29,289731,300837,167019,280776,146008,280774,146006,29,29,300837,167019,301377,169008,301377,169009,19451,280776,146008,282060,147274,283343,148558,284595,149841,285879,151124,287162,152408,288446,153692,MemorySpan_1,0,82697,111,yes,1024
9,6,1,8,3000,5,3,4,w,500,750,0,0,780,780,black,no,legacy,legacy,legacy,0,numbers,uniform,,139,0,19,0,57,58,9,9,57,58,9,9,0,0,57,58,0,57,58,9,9,9,9,0,9,9,9,9,9,9,9,9,9,9,9,9,9,9,9,9,9,9,Thu Sep 03 2020 08:33:41 GMT+0200 (Centraleuropæisk sommertid),The main experiment item,yes,,/Users/ethan/Documents/GitHub/OpenSesame/MemorySpan,no,mono,no,18,no,white,no,no,768,legacy,legacy,964enter,osweb,1.3.8,enter,space,enter,enter,1221,19410,1221,1989,2,legacy,1599114834532,1024,2,48000,-16,7,experiment,0,even,309864,29,310383,320807,167019,301397,146008,301396,146006,29,29,320807,167019,322030,169008,322030,169009,19451,301397,146008,302678,147274,303962,148558,305246,149841,306530,151124,307813,152408,309098,153692,MemorySpan_1,0,91228,117,yes,1024
v,j,y,w,3000,w,w,w,w,500,750,0,0,584,584,black,no,legacy,legacy,legacy,0,letters,uniform,,6,0,0,0,,3,,0,,3,,0,0,0,,3,0,,3,,0,,0,0,,0,,0,,0,,0,,0,,0,,0,,0,,0,Thu Sep 03 2020 08:33:14 GMT+0200 (Centraleuropæisk sommertid),The main experiment item,yes,,/Users/ethan/Documents/GitHub/OpenSesame/MemorySpan,no,mono,no,18,no,white,no,no,768,legacy,legacy,vjyenter,osweb,1.3.8,enter,j,,enter,544,3427,,544,2,legacy,1599114799891,1024,2,48000,-16,3,experiment,1,odd,8881,30,9401,,14252,,3490,,3489,30,30,,14252,,14797,,14797,3464,,3490,,4764,,6048,,,,,,,,,MemorySpan_1,0,2335,4,yes,1024
z,v,y,w,3000,w,w,w,w,500,750,0,0,638,638,black,no,legacy,legacy,legacy,0,letters,uniform,,13,0,1,0,,7,,1,,7,,1,0,0,,7,0,,7,,1,,1,0,,1,,1,,1,,1,,1,,1,,1,,1,,1,Thu Sep 03 2020 08:33:14 GMT+0200 (Centraleuropæisk sommertid),The main experiment item,yes,,/Users/ethan/Documents/GitHub/OpenSesame/MemorySpan,no,mono,no,18,no,white,no,no,768,legacy,legacy,zvyenter,osweb,1.3.8,enter,j,,enter,1096,3427,,1096,2,legacy,1599114799891,1024,2,48000,-16,3,experiment,1,odd,20213,30,20731,,25468,,14816,,14815,30,30,,25468,,26580,,26580,3464,,14815,,16097,,17380,,,,,,,,,MemorySpan_1,0,5100,8,yes,1024
z,x,m,y,3000,w,w,w,w,500,750,0,0,713,713,black,no,legacy,legacy,legacy,0,letters,uniform,,20,0,2,0,,12,,2,,12,,2,0,0,,12,0,,12,,2,,2,0,,2,,2,,2,,2,,2,,2,,2,,2,,2,Thu Sep 03 2020 08:33:14 GMT+0200 (Centraleuropæisk sommertid),The main experiment item,yes,,/Users/ethan/Documents/GitHub/OpenSesame/MemorySpan,no,mono,no,18,no,white,no,no,768,legacy,legacy,zxmyenter,osweb,1.3.8,enter,j,,enter,1759,3427,,1759,2,legacy,1599114799891,1024,2,48000,-16,4,experiment,1,odd,32763,30,33280,,38767,,26597,,26597,30,30,,38767,,40529,,40529,3464,,26597,,27880,,29163,,30447,,,,,,,MemorySpan_1,0,9268,13,yes,1024
t,q,t,f,3000,w,w,w,w,500,750,0,0,673,673,black,no,legacy,legacy,legacy,0,letters,uniform,,27,0,3,0,,17,,3,,17,,3,0,0,,17,0,,17,,3,,3,0,,3,,3,,3,,3,,3,,3,,3,,3,,3,Thu Sep 03 2020 08:33:14 GMT+0200 (Centraleuropæisk sommertid),The main experiment item,yes,,/Users/ethan/Documents/GitHub/OpenSesame/MemorySpan,no,mono,no,18,no,white,no,no,768,legacy,legacy,tqtfenter,osweb,1.3.8,enter,j,,enter,813,3427,,813,2,legacy,1599114799891,1024,2,48000,-16,4,experiment,1,odd,46712,30,47229,,52333,,40546,,40546,30,30,,52333,,53162,,53162,3464,,40546,,41829,,43113,,44396,,,,,,,MemorySpan_1,0,12112,18,yes,1024
d,y,v,f,3000,x,w,w,w,500,750,0,0,658,658,black,no,legacy,legacy,legacy,0,letters,uniform,,34,0,4,0,,23,,4,,23,,4,0,0,,23,0,,23,,4,,4,0,,4,,4,,4,,4,,4,,4,,4,,4,,4,Thu Sep 03 2020 08:33:14 GMT+0200 (Centraleuropæisk sommertid),The main experiment item,yes,,/Users/ethan/Documents/GitHub/OpenSesame/MemorySpan,no,mono,no,18,no,white,no,no,768,legacy,legacy,dyvfxenter,osweb,1.3.8,enter,j,,enter,993,3427,,993,2,legacy,1599114799891,1024,2,48000,-16,5,experiment,1,odd,60112,30,60629,,66416,,53178,,53178,30,30,,66416,,67411,,67411,3464,,53178,,54462,,55745,,57029,,58312,,,,,MemorySpan_1,0,15786,24,yes,1024
i,m,v,t,3000,k,w,w,w,500,750,0,0,634,634,black,no,legacy,legacy,legacy,0,letters,uniform,,41,0,5,0,,29,,5,,29,,5,0,0,,29,0,,29,,5,,5,0,,5,,5,,5,,5,,5,,5,,5,,5,,5,Thu Sep 03 2020 08:33:14 GMT+0200 (Centraleuropæisk sommertid),The main experiment item,yes,,/Users/ethan/Documents/GitHub/OpenSesame/MemorySpan,no,mono,no,18,no,white,no,no,768,legacy,legacy,imvtkenter,osweb,1.3.8,enter,j,,enter,916,3427,,916,2,legacy,1599114799891,1024,2,48000,-16,5,experiment,1,odd,74361,30,74878,,80298,,67430,,67430,30,30,,80298,,81227,,81227,3464,,67430,,68711,,69995,,71278,,72561,,,,,MemorySpan_1,0,19020,30,yes,1024
g,r,y,p,3000,y,r,w,w,500,750,0,0,642,642,black,no,legacy,legacy,legacy,0,letters,uniform,,48,0,6,0,,36,,6,,36,,6,0,0,,36,0,,36,,6,,6,0,,6,,6,,6,,6,,6,,6,,6,,6,,6,Thu Sep 03 2020 08:33:14 GMT+0200 (Centraleuropæisk sommertid),The main experiment item,yes,,/Users/ethan/Documents/GitHub/OpenSesame/MemorySpan,no,mono,no,18,no,white,no,no,768,legacy,legacy,grypyrenter,osweb,1.3.8,enter,j,,enter,837,3427,,837,2,legacy,1599114799891,1024,2,48000,-16,6,experiment,1,odd,88944,30,89461,,96464,,81246,,81245,30,30,,96464,,97310,,97310,3464,,81246,,82527,,83811,,85094,,86377,,87661,,,MemorySpan_1,0,23762,37,yes,1024
i,m,u,u,3000,e,r,w,w,500,750,0,0,658,658,black,no,legacy,legacy,legacy,0,letters,uniform,,55,0,7,0,,43,,7,,43,,7,0,0,,43,0,,43,,7,,7,0,,7,,7,,7,,7,,7,,7,,7,,7,,7,Thu Sep 03 2020 08:33:14 GMT+0200 (Centraleuropæisk sommertid),The main experiment item,yes,,/Users/ethan/Documents/GitHub/OpenSesame/MemorySpan,no,mono,no,18,no,white,no,no,768,legacy,legacy,imuuerenter,osweb,1.3.8,enter,j,,enter,2060,3427,,2060,2,legacy,1599114799891,1024,2,48000,-16,6,experiment,1,odd,105026,30,105543,,111780,,97328,,97327,30,30,,111780,,113842,,113842,3464,,97328,,98610,,99893,,101176,,102460,,103743,,,MemorySpan_1,0,28968,44,yes,1024
v,e,z,g,3000,s,q,l,w,500,750,0,0,657,657,black,no,legacy,legacy,legacy,0,letters,uniform,,62,0,8,0,,51,,8,,51,,8,0,0,,51,0,,51,,8,,8,0,,8,,8,,8,,8,,8,,8,,8,,8,,8,Thu Sep 03 2020 08:33:14 GMT+0200 (Centraleuropæisk sommertid),The main experiment item,yes,,/Users/ethan/Documents/GitHub/OpenSesame/MemorySpan,no,mono,no,18,no,white,no,no,768,legacy,legacy,vezgsqlenter,osweb,1.3.8,enter,j,,enter,1477,3427,,1477,2,legacy,1599114799891,1024,2,48000,-16,7,experiment,1,odd,122325,30,122842,,129679,,113860,,113858,30,30,,129679,,131158,,131158,3464,,113860,,115142,,116426,,117709,,118992,,120276,,121559,MemorySpan_1,0,34187,52,yes,1024
u,p,t,x,3000,i,p,f,w,500,750,0,0,660,660,black,no,legacy,legacy,legacy,0,letters,uniform,,69,0,9,0,,58,,9,,58,,9,0,0,,58,0,,58,,9,,9,0,,9,,9,,9,,9,,9,,9,,9,,9,,9,Thu Sep 03 2020 08:33:14 GMT+0200 (Centraleuropæisk sommertid),The main experiment item,yes,,/Users/ethan/Documents/GitHub/OpenSesame/MemorySpan,no,mono,no,18,no,white,no,no,768,legacy,legacy,upxitfenter,osweb,1.3.8,enter,j,,enter,699,3427,,699,2,legacy,1599114799891,1024,2,48000,-16,7,experiment,1,odd,139641,30,140158,,147328,,131175,,131174,30,30,,147328,,148041,,148041,3464,,131175,,132458,,133742,,135025,,136308,,137591,,138875,MemorySpan_1,0,38960,59,yes,1024
3,9,5,w,3000,w,w,w,w,500,750,0,0,591,591,black,no,legacy,legacy,legacy,0,numbers,uniform,,76,0,10,0,22,58,0,9,22,58,0,9,0,0,22,58,0,22,58,0,9,0,9,0,0,9,0,9,0,9,0,9,0,9,0,9,0,9,0,9,0,9,Thu Sep 03 2020 08:33:14 GMT+0200 (Centraleuropæisk sommertid),The main experiment item,yes,,/Users/ethan/Documents/GitHub/OpenSesame/MemorySpan,no,mono,no,18,no,white,no,no,768,legacy,legacy,395enter,osweb,1.3.8,enter,j,enter,enter,608,3427,608,699,2,legacy,1599114799891,1024,2,48000,-16,3,experiment,1,odd,153457,30,153974,166194,147328,148058,131175,148057,131174,30,30,166194,147328,166806,148041,166807,148041,3464,148058,131175,149341,132458,150624,133742,,135025,,136308,,137591,,138875,MemorySpan_1,0,48494,82,yes,1024
1,8,3,w,3000,w,w,w,w,500,750,0,0,586,586,black,no,legacy,legacy,legacy,0,numbers,uniform,,83,0,11,0,26,58,1,9,26,58,1,9,0,0,26,58,0,26,58,1,9,1,9,0,1,9,1,9,1,9,1,9,1,9,1,9,1,9,1,9,1,9,Thu Sep 03 2020 08:33:14 GMT+0200 (Centraleuropæisk sommertid),The main experiment item,yes,,/Users/ethan/Documents/GitHub/OpenSesame/MemorySpan,no,mono,no,18,no,white,no,no,768,legacy,legacy,183enter,osweb,1.3.8,enter,j,enter,enter,534,3427,534,699,2,legacy,1599114799891,1024,2,48000,-16,3,experiment,1,odd,172223,30,172740,177193,147328,166824,131175,166823,131174,30,30,177194,147328,177739,148041,177739,148041,3464,166824,131175,168107,132458,169390,133742,,135025,,136308,,137591,,138875,MemorySpan_1,0,50423,86,yes,1024
6,5,5,4,3000,w,w,w,w,500,750,0,0,581,581,black,no,legacy,legacy,legacy,0,numbers,uniform,,90,0,12,0,31,58,2,9,31,58,2,9,0,0,31,58,0,31,58,2,9,2,9,0,2,9,2,9,2,9,2,9,2,9,2,9,2,9,2,9,2,9,Thu Sep 03 2020 08:33:14 GMT+0200 (Centraleuropæisk sommertid),The main experiment item,yes,,/Users/ethan/Documents/GitHub/OpenSesame/MemorySpan,no,mono,no,18,no,white,no,no,768,legacy,legacy,6554enter,osweb,1.3.8,enter,j,enter,enter,584,3427,584,699,2,legacy,1599114799891,1024,2,48000,-16,4,experiment,1,odd,183922,30,184440,189410,147328,177756,131175,177755,131174,30,30,189410,147328,190005,148041,190006,148041,3464,177756,131175,179039,132458,180323,133742,181606,135025,,136308,,137591,,138875,MemorySpan_1,0,52891,91,yes,1024
5,5,5,1,3000,w,w,w,w,500,750,0,0,575,575,black,no,legacy,legacy,legacy,0,numbers,uniform,,97,0,13,0,36,58,3,9,36,58,3,9,0,0,36,58,0,36,58,3,9,3,9,0,3,9,3,9,3,9,3,9,3,9,3,9,3,9,3,9,3,9,Thu Sep 03 2020 08:33:14 GMT+0200 (Centraleuropæisk sommertid),The main experiment item,yes,,/Users/ethan/Documents/GitHub/OpenSesame/MemorySpan,no,mono,no,18,no,white,no,no,768,legacy,legacy,5551enter,osweb,1.3.8,enter,j,enter,enter,668,3427,668,699,2,legacy,1599114799891,1024,2,48000,-16,4,experiment,1,odd,196188,30,196706,201409,147328,190022,131175,190021,131174,30,30,201409,147328,202088,148041,202088,148041,3464,190022,131175,191306,132458,192589,133742,193872,135025,,136308,,137591,,138875,MemorySpan_1,0,55185,96,yes,1024
5,2,4,1,3000,2,w,w,w,500,750,0,0,582,582,black,no,legacy,legacy,legacy,0,numbers,uniform,,104,0,14,0,42,58,4,9,42,58,4,9,0,0,42,58,0,42,58,4,9,4,9,0,4,9,4,9,4,9,4,9,4,9,4,9,4,9,4,9,4,9,Thu Sep 03 2020 08:33:14 GMT+0200 (Centraleuropæisk sommertid),The main experiment item,yes,,/Users/ethan/Documents/GitHub/OpenSesame/MemorySpan,no,mono,no,18,no,white,no,no,768,legacy,legacy,52412enter,osweb,1.3.8,enter,j,enter,enter,1622,3427,1622,699,2,legacy,1599114799891,1024,2,48000,-16,5,experiment,1,odd,209038,30,209557,215175,147328,202106,131175,202105,131174,30,30,215175,147328,216804,148041,216804,148041,3464,202106,131175,203388,132458,204672,133742,205955,135025,207238,136308,,137591,,138875,MemorySpan_1,0,59339,102,yes,1024
2,9,6,4,3000,6,w,w,w,500,750,0,0,587,587,black,no,legacy,legacy,legacy,0,numbers,uniform,,111,0,15,0,48,58,5,9,48,58,5,9,0,0,48,58,0,48,58,5,9,5,9,0,5,9,5,9,5,9,5,9,5,9,5,9,5,9,5,9,5,9,Thu Sep 03 2020 08:33:14 GMT+0200 (Centraleuropæisk sommertid),The main experiment item,yes,,/Users/ethan/Documents/GitHub/OpenSesame/MemorySpan,no,mono,no,18,no,white,no,no,768,legacy,legacy,29646enter,osweb,1.3.8,enter,j,enter,enter,1409,3427,1409,699,2,legacy,1599114799891,1024,2,48000,-16,5,experiment,1,odd,223737,30,224254,229974,147328,216820,131175,216820,131174,30,30,229974,147328,231387,148041,231387,148041,3464,216820,131175,218088,132458,219371,133742,220654,135025,221937,136308,,137591,,138875,MemorySpan_1,0,63378,108,yes,1024
4,3,3,6,3000,4,5,w,w,500,750,0,0,584,584,black,no,legacy,legacy,legacy,0,numbers,uniform,,118,0,16,0,55,58,6,9,55,58,6,9,0,0,55,58,0,55,58,6,9,6,9,0,6,9,6,9,6,9,6,9,6,9,6,9,6,9,6,9,6,9,Thu Sep 03 2020 08:33:14 GMT+0200 (Centraleuropæisk sommertid),The main experiment item,yes,,/Users/ethan/Documents/GitHub/OpenSesame/MemorySpan,no,mono,no,18,no,white,no,no,768,legacy,legacy,433645enter,osweb,1.3.8,enter,j,enter,enter,700,3427,700,699,2,legacy,1599114799891,1024,2,48000,-16,6,experiment,1,odd,239086,30,239603,245757,147328,231402,131175,231402,131174,30,30,245757,147328,246469,148041,246470,148041,3464,231402,131175,232670,132458,233953,133742,235237,135025,236520,136308,237803,137591,,138875,MemorySpan_1,0,67129,115,yes,1024
3,1,8,4,3000,4,4,w,w,500,750,0,0,584,584,black,no,legacy,legacy,legacy,0,numbers,uniform,,125,0,17,0,62,58,7,9,62,58,7,9,0,0,62,58,0,62,58,7,9,7,9,0,7,9,7,9,7,9,7,9,7,9,7,9,7,9,7,9,7,9,Thu Sep 03 2020 08:33:14 GMT+0200 (Centraleuropæisk sommertid),The main experiment item,yes,,/Users/ethan/Documents/GitHub/OpenSesame/MemorySpan,no,mono,no,18,no,white,no,no,768,legacy,legacy,318444enter,osweb,1.3.8,enter,j,enter,enter,992,3427,992,699,2,legacy,1599114799891,1024,2,48000,-16,6,experiment,1,odd,254186,30,254703,260906,147328,246486,131175,246486,131174,30,30,260906,147328,261902,148041,261902,148041,3464,246486,131175,247770,132458,249053,133742,250336,135025,251619,136308,252903,137591,,138875,MemorySpan_1,0,71221,122,yes,1024
6,3,9,9,3000,6,5,4,w,500,750,0,0,607,607,black,no,legacy,legacy,legacy,0,numbers,uniform,,132,0,18,0,70,58,8,9,70,58,8,9,0,0,70,58,0,70,58,8,9,8,9,0,8,9,8,9,8,9,8,9,8,9,8,9,8,9,8,9,8,9,Thu Sep 03 2020 08:33:14 GMT+0200 (Centraleuropæisk sommertid),The main experiment item,yes,,/Users/ethan/Documents/GitHub/OpenSesame/MemorySpan,no,mono,no,18,no,white,no,no,768,legacy,legacy,3699654enter,osweb,1.3.8,enter,j,enter,enter,1248,3427,1248,699,2,legacy,1599114799891,1024,2,48000,-16,7,experiment,1,odd,270385,30,270902,280507,147328,261918,131175,261917,131174,30,30,280507,147328,281768,148041,281768,148041,3464,261918,131175,263202,132458,264485,133742,265769,135025,267052,136308,268335,137591,269618,138875,MemorySpan_1,0,78965,130,yes,1024
9,6,1,8,3000,5,3,4,w,500,750,0,0,607,607,black,no,legacy,legacy,legacy,0,numbers,uniform,,139,0,19,0,78,58,9,9,78,58,9,9,0,0,78,58,0,78,58,9,9,9,9,0,9,9,9,9,9,9,9,9,9,9,9,9,9,9,9,9,9,9,Thu Sep 03 2020 08:33:14 GMT+0200 (Centraleuropæisk sommertid),The main experiment item,yes,,/Users/ethan/Documents/GitHub/OpenSesame/MemorySpan,no,mono,no,18,no,white,no,no,768,legacy,legacy,9618534enter,osweb,1.3.8,enter,j,enter,enter,1514,3427,1514,699,2,legacy,1599114799891,1024,2,48000,-16,7,experiment,1,odd,290251,30,290768,297221,147328,281784,131175,281784,131174,30,30,297221,147328,298750,148041,298750,148041,3464,281784,131175,283068,132458,284351,133742,285634,135025,286918,136308,288201,137591,289484,138875,MemorySpan_1,0,83825,138,yes,1024
v,j,y,w,3000,w,w,w,w,500,750,0,0,1145,1145,black,no,legacy,legacy,legacy,0,letters,uniform,,6,0,0,0,,3,,0,,3,,0,0,0,,3,0,,3,,0,,0,0,,0,,0,,0,,0,,0,,0,,0,,0,,0,Thu Sep 03 2020 08:32:19 GMT+0200 (CEST),The main experiment item,yes,,/Users/ethan/Documents/GitHub/OpenSesame/MemorySpan,no,mono,no,18,no,white,no,no,768,legacy,legacy,vjyenter,osweb,1.3.8,enter,k,,enter,1599,2035,,1599,2,legacy,1599114819736,1024,2,48000,-16,3,experiment,0,even,7499,33,8005,,14084,,2122,,2119,33,33,,14084,,15785,,15786,2082,,2122,,3407,,4677,,,,,,,,,MemorySpan_1,0,4578,4,yes,1024
z,v,y,w,3000,w,w,w,w,500,750,0,0,895,895,black,no,legacy,legacy,legacy,0,letters,uniform,,13,0,1,0,,7,,1,,7,,1,0,0,,7,0,,7,,1,,1,0,,1,,1,,1,,1,,1,,1,,1,,1,,1,Thu Sep 03 2020 08:32:19 GMT+0200 (CEST),The main experiment item,yes,,/Users/ethan/Documents/GitHub/OpenSesame/MemorySpan,no,mono,no,18,no,white,no,no,768,legacy,legacy,zvyenter,osweb,1.3.8,enter,k,,enter,551,2035,,551,2,legacy,1599114819736,1024,2,48000,-16,3,experiment,0,even,21191,33,21695,,26821,,15821,,15818,33,33,,26822,,27375,,27376,2082,,15821,,17099,,18369,,,,,,,,,MemorySpan_1,0,7162,8,yes,1024
z,x,m,y,3000,w,w,w,w,500,750,0,0,764,764,black,no,legacy,legacy,legacy,0,letters,uniform,,20,0,2,0,,12,,2,,12,,2,0,0,,12,0,,12,,2,,2,0,,2,,2,,2,,2,,2,,2,,2,,2,,2,Thu Sep 03 2020 08:32:19 GMT+0200 (CEST),The main experiment item,yes,,/Users/ethan/Documents/GitHub/OpenSesame/MemorySpan,no,mono,no,18,no,white,no,no,768,legacy,legacy,zxmyenter,osweb,1.3.8,enter,k,,enter,700,2035,,700,2,legacy,1599114819736,1024,2,48000,-16,4,experiment,0,even,33546,33,34066,,39226,,27405,,27401,33,33,,39226,,39931,,39932,2082,,27405,,28686,,29972,,31243,,,,,,,MemorySpan_1,0,9929,13,yes,1024
t,q,t,f,3000,w,w,w,w,500,750,0,0,717,717,black,no,legacy,legacy,legacy,0,letters,uniform,,27,0,3,0,,17,,3,,17,,3,0,0,,17,0,,17,,3,,3,0,,3,,3,,3,,3,,3,,3,,3,,3,,3,Thu Sep 03 2020 08:32:19 GMT+0200 (CEST),The main experiment item,yes,,/Users/ethan/Documents/GitHub/OpenSesame/MemorySpan,no,mono,no,18,no,white,no,no,768,legacy,legacy,tqtfenter,osweb,1.3.8,enter,k,,enter,690,2035,,690,2,legacy,1599114819736,1024,2,48000,-16,4,experiment,0,even,46051,33,46554,,51948,,39957,,39954,33,33,,51948,,52654,,52655,2082,,39957,,41223,,42493,,43764,,,,,,,MemorySpan_1,0,12898,18,yes,1024
d,y,v,f,3000,x,w,w,w,500,750,0,0,746,746,black,no,legacy,legacy,legacy,0,letters,uniform,,34,0,4,0,,23,,4,,23,,4,0,0,,23,0,,23,,4,,4,0,,4,,4,,4,,4,,4,,4,,4,,4,,4,Thu Sep 03 2020 08:32:19 GMT+0200 (CEST),The main experiment item,yes,,/Users/ethan/Documents/GitHub/OpenSesame/MemorySpan,no,mono,no,18,no,white,no,no,768,legacy,legacy,dyfvxenter,osweb,1.3.8,enter,k,,enter,390,2035,,390,2,legacy,1599114819736,1024,2,48000,-16,5,experiment,0,even,59593,33,60113,,67863,,52682,,52679,33,33,,67863,,68269,,68270,2082,,52682,,53962,,55233,,56524,,57808,,,,,MemorySpan_1,0,17914,24,yes,1024
i,m,v,t,3000,k,w,w,w,500,750,0,0,741,741,black,no,legacy,legacy,legacy,0,letters,uniform,,41,0,5,0,,31,,5,,31,,5,0,0,,31,0,,31,,5,,5,0,,5,,5,,5,,5,,5,,5,,5,,5,,5,Thu Sep 03 2020 08:32:19 GMT+0200 (CEST),The main experiment item,yes,,/Users/ethan/Documents/GitHub/OpenSesame/MemorySpan,no,mono,no,18,no,white,no,no,768,legacy,legacy,imvtkenter,osweb,1.3.8,enter,k,,enter,2103,2035,,2103,2,legacy,1599114819736,1024,2,48000,-16,5,experiment,0,even,75208,33,75727,,82593,,68296,,68292,33,33,,82593,,84703,,84704,2082,,68295,,69577,,70864,,72135,,73422,,,,,MemorySpan_1,0,23699,32,yes,1024
g,r,y,p,3000,y,r,w,w,500,750,0,0,836,836,black,no,legacy,legacy,legacy,0,letters,uniform,,48,0,6,0,,40,,6,,40,,6,0,0,,40,0,,40,,6,,6,0,,6,,6,,6,,6,,6,,6,,6,,6,,6,Thu Sep 03 2020 08:32:19 GMT+0200 (CEST),The main experiment item,yes,,/Users/ethan/Documents/GitHub/OpenSesame/MemorySpan,no,mono,no,18,no,white,no,no,768,legacy,legacy,gryvprenter,osweb,1.3.8,enter,k,,enter,1088,2035,,1088,2,legacy,1599114819736,1024,2,48000,-16,6,experiment,0,even,92377,33,92880,,105564,,84730,,84727,33,33,,105564,,106669,,106670,2082,,84730,,85994,,87281,,88552,,89839,,91110,,,MemorySpan_1,0,34258,41,yes,1024
i,m,u,u,3000,e,r,w,w,500,750,0,0,772,772,black,no,legacy,legacy,legacy,0,letters,uniform,,55,0,7,0,,47,,7,,47,,7,0,0,,47,0,,47,,7,,7,0,,7,,7,,7,,7,,7,,7,,7,,7,,7,Thu Sep 03 2020 08:32:19 GMT+0200 (CEST),The main experiment item,yes,,/Users/ethan/Documents/GitHub/OpenSesame/MemorySpan,no,mono,no,18,no,white,no,no,768,legacy,legacy,imuuerenter,osweb,1.3.8,enter,k,,enter,293,2035,,293,2,legacy,1599114819736,1024,2,48000,-16,6,experiment,0,even,114362,33,114880,,120628,,106696,,106693,33,33,,120628,,120931,,120932,2082,,106696,,107963,,109233,,110503,,111790,,113077,,,MemorySpan_1,0,37034,48,yes,1024
v,e,z,g,3000,s,q,l,w,500,750,0,0,800,800,black,no,legacy,legacy,legacy,0,letters,uniform,,62,0,8,0,,54,,8,,54,,8,0,0,,54,0,,54,,8,,8,0,,8,,8,,8,,8,,8,,8,,8,,8,,8,Thu Sep 03 2020 08:32:19 GMT+0200 (CEST),The main experiment item,yes,,/Users/ethan/Documents/GitHub/OpenSesame/MemorySpan,no,mono,no,18,no,white,no,no,768,legacy,legacy,verqzlenter,osweb,1.3.8,enter,k,,enter,447,2035,,447,2,legacy,1599114819736,1024,2,48000,-16,7,experiment,0,even,129357,33,129861,,139521,,120957,,120954,33,33,,139521,,139973,,139974,2082,,120957,,122239,,123511,,124781,,126051,,127321,,128593,MemorySpan_1,0,44000,55,yes,1024
u,p,t,x,3000,i,p,f,w,500,750,0,0,801,801,black,no,legacy,legacy,legacy,0,letters,uniform,,69,0,9,0,,61,,9,,61,,9,0,0,,61,0,,61,,9,,9,0,,9,,9,,9,,9,,9,,9,,9,,9,,9,Thu Sep 03 2020 08:32:19 GMT+0200 (CEST),The main experiment item,yes,,/Users/ethan/Documents/GitHub/OpenSesame/MemorySpan,no,mono,no,18,no,white,no,no,768,legacy,legacy,uptxvfenter,osweb,1.3.8,enter,k,,enter,392,2035,,392,2,legacy,1599114819736,1024,2,48000,-16,7,experiment,0,even,148718,33,149237,,157657,,140274,,140271,33,33,,157657,,158061,,158062,2082,,140274,,141549,,142836,,144123,,145394,,146681,,147952,MemorySpan_1,0,49644,62,yes,1024
3,9,5,w,3000,w,w,w,w,500,750,0,0,780,780,black,no,legacy,legacy,legacy,0,numbers,uniform,,76,0,10,0,3,61,0,9,3,61,0,9,0,0,3,61,0,3,61,0,9,0,9,0,0,9,0,9,0,9,0,9,0,9,0,9,0,9,0,9,0,9,Thu Sep 03 2020 08:32:19 GMT+0200 (CEST),The main experiment item,yes,,/Users/ethan/Documents/GitHub/OpenSesame/MemorySpan,no,mono,no,18,no,white,no,no,768,legacy,legacy,395enter,osweb,1.3.8,enter,k,enter,enter,291,2035,291,392,2,legacy,1599114819736,1024,2,48000,-16,3,experiment,0,even,163447,33,163966,168573,157657,158087,140274,158083,140271,33,33,168573,157657,168879,158061,168880,158062,2082,158086,140274,159370,141549,160641,142836,,144123,,145394,,146681,,147952,MemorySpan_1,0,51453,66,yes,1024
1,8,3,w,3000,w,w,w,w,500,750,0,0,759,759,black,no,legacy,legacy,legacy,0,numbers,uniform,,83,0,11,0,7,61,1,9,7,61,1,9,0,0,7,61,0,7,61,1,9,1,9,0,1,9,1,9,1,9,1,9,1,9,1,9,1,9,1,9,1,9,Thu Sep 03 2020 08:32:19 GMT+0200 (CEST),The main experiment item,yes,,/Users/ethan/Documents/GitHub/OpenSesame/MemorySpan,no,mono,no,18,no,white,no,no,768,legacy,legacy,183enter,osweb,1.3.8,enter,k,enter,enter,356,2035,356,392,2,legacy,1599114819736,1024,2,48000,-16,3,experiment,0,even,174263,33,174766,179145,157657,168914,140274,168910,140271,33,33,179145,157657,179512,158061,179514,158062,2082,168914,140274,170188,141549,171474,142836,,144123,,145394,,146681,,147952,MemorySpan_1,0,53100,70,yes,1024
6,5,5,4,3000,w,w,w,w,500,750,0,0,818,818,black,no,legacy,legacy,legacy,0,numbers,uniform,,90,0,12,0,12,61,2,9,12,61,2,9,0,0,12,61,0,12,61,2,9,2,9,0,2,9,2,9,2,9,2,9,2,9,2,9,2,9,2,9,2,9,Thu Sep 03 2020 08:32:19 GMT+0200 (CEST),The main experiment item,yes,,/Users/ethan/Documents/GitHub/OpenSesame/MemorySpan,no,mono,no,18,no,white,no,no,768,legacy,legacy,6584enter,osweb,1.3.8,enter,k,enter,enter,394,2035,394,392,2,legacy,1599114819736,1024,2,48000,-16,4,experiment,0,even,185665,33,186184,197180,157657,179541,140274,179537,140271,33,33,197181,157657,197584,158061,197585,158062,2082,179541,140274,180803,141549,182074,142836,183361,144123,,145394,,146681,,147952,MemorySpan_1,0,61376,75,yes,1024
5,5,5,1,3000,w,w,w,w,500,750,0,0,805,805,black,no,legacy,legacy,legacy,0,numbers,uniform,,97,0,13,0,17,61,3,9,17,61,3,9,0,0,17,61,0,17,61,3,9,3,9,0,3,9,3,9,3,9,3,9,3,9,3,9,3,9,3,9,3,9,Thu Sep 03 2020 08:32:19 GMT+0200 (CEST),The main experiment item,yes,,/Users/ethan/Documents/GitHub/OpenSesame/MemorySpan,no,mono,no,18,no,white,no,no,768,legacy,legacy,5551enter,osweb,1.3.8,enter,k,enter,enter,603,2035,603,392,2,legacy,1599114819736,1024,2,48000,-16,4,experiment,0,even,203754,33,204257,209786,157657,197609,140274,197606,140271,33,33,209786,157657,210389,158061,210390,158062,2082,197609,140274,198892,141549,200163,142836,201450,144123,,145394,,146681,,147952,MemorySpan_1,0,64411,80,yes,1024
5,2,4,1,3000,2,w,w,w,500,750,0,0,784,784,black,no,legacy,legacy,legacy,0,numbers,uniform,,104,0,14,0,23,61,4,9,23,61,4,9,0,0,23,61,0,23,61,4,9,4,9,0,4,9,4,9,4,9,4,9,4,9,4,9,4,9,4,9,4,9,Thu Sep 03 2020 08:32:19 GMT+0200 (CEST),The main experiment item,yes,,/Users/ethan/Documents/GitHub/OpenSesame/MemorySpan,no,mono,no,18,no,white,no,no,768,legacy,legacy,52412enter,osweb,1.3.8,enter,k,enter,enter,569,2035,569,392,2,legacy,1599114819736,1024,2,48000,-16,5,experiment,0,even,217312,33,217815,223411,157657,210413,140274,210410,140271,33,33,223411,157657,223981,158061,223982,158062,2082,210413,140274,211699,141549,212969,142836,214256,144123,215527,145394,,146681,,147952,MemorySpan_1,0,67440,86,yes,1024
2,9,6,4,3000,6,w,w,w,500,750,0,0,809,809,black,no,legacy,legacy,legacy,0,numbers,uniform,,111,0,15,0,29,61,5,9,29,61,5,9,0,0,29,61,0,29,61,5,9,5,9,0,5,9,5,9,5,9,5,9,5,9,5,9,5,9,5,9,5,9,Thu Sep 03 2020 08:32:19 GMT+0200 (CEST),The main experiment item,yes,,/Users/ethan/Documents/GitHub/OpenSesame/MemorySpan,no,mono,no,18,no,white,no,no,768,legacy,legacy,29416enter,osweb,1.3.8,enter,k,enter,enter,1960,2035,1960,392,2,legacy,1599114819736,1024,2,48000,-16,5,experiment,0,even,230888,33,231407,239509,157657,224006,140274,224003,140271,33,33,239509,157657,241486,158061,241491,158062,2082,224006,140274,225290,141549,226561,142836,227848,144123,229119,145394,,146681,,147952,MemorySpan_1,0,74383,92,yes,1024
4,3,3,6,3000,4,5,w,w,500,750,0,0,821,821,black,no,legacy,legacy,legacy,0,numbers,uniform,,118,0,16,0,34,61,6,9,34,61,6,9,0,0,34,61,0,34,61,6,9,6,9,0,6,9,6,9,6,9,6,9,6,9,6,9,6,9,6,9,6,9,Thu Sep 03 2020 08:32:19 GMT+0200 (CEST),The main experiment item,yes,,/Users/ethan/Documents/GitHub/OpenSesame/MemorySpan,no,mono,no,18,no,white,no,no,768,legacy,legacy,4563enter,osweb,1.3.8,enter,k,enter,enter,394,2035,394,392,2,legacy,1599114819736,1024,2,48000,-16,6,experiment,0,even,249144,33,249647,257635,157657,241518,140274,241514,140271,33,33,257635,157657,258037,158061,258038,158062,2082,241518,140274,242794,141549,244065,142836,245335,144123,246606,145394,247876,146681,,147952,MemorySpan_1,0,79634,97,yes,1024
3,1,8,4,3000,4,4,w,w,500,750,0,0,803,803,black,no,legacy,legacy,legacy,0,numbers,uniform,,125,0,17,0,41,61,7,9,41,61,7,9,0,0,41,61,0,41,61,7,9,7,9,0,7,9,7,9,7,9,7,9,7,9,7,9,7,9,7,9,7,9,Thu Sep 03 2020 08:32:19 GMT+0200 (CEST),The main experiment item,yes,,/Users/ethan/Documents/GitHub/OpenSesame/MemorySpan,no,mono,no,18,no,white,no,no,768,legacy,legacy,318444enter,osweb,1.3.8,enter,k,enter,enter,1410,2035,1410,392,2,legacy,1599114819736,1024,2,48000,-16,6,experiment,0,even,265745,33,266248,271927,157657,258063,140274,258060,140271,33,33,271927,157657,273351,158061,273352,158062,2082,258063,140274,259345,141549,260616,142836,261903,144123,263175,145394,264461,146681,,147952,MemorySpan_1,0,83563,104,yes,1024
6,3,9,9,3000,6,5,4,w,500,750,0,0,814,814,black,no,legacy,legacy,legacy,0,numbers,uniform,,132,0,18,0,48,61,8,9,48,61,8,9,0,0,48,61,0,48,61,8,9,8,9,0,8,9,8,9,8,9,8,9,8,9,8,9,8,9,8,9,8,9,Thu Sep 03 2020 08:32:19 GMT+0200 (CEST),The main experiment item,yes,,/Users/ethan/Documents/GitHub/OpenSesame/MemorySpan,no,mono,no,18,no,white,no,no,768,legacy,legacy,639964enter,osweb,1.3.8,enter,k,enter,enter,1459,2035,1459,392,2,legacy,1599114819736,1024,2,48000,-16,7,experiment,0,even,281778,33,282297,290751,157657,273378,140274,273375,140271,33,33,290751,157657,292226,158061,292227,158062,2082,273378,140274,274659,141549,275930,142836,277200,144123,278471,145394,279745,146681,281012,147952,MemorySpan_1,0,90327,111,yes,1024
9,6,1,8,3000,5,3,4,w,500,750,0,0,805,805,black,no,legacy,legacy,legacy,0,numbers,uniform,,139,0,19,0,56,61,9,9,56,61,9,9,0,0,56,61,0,56,61,9,9,9,9,0,9,9,9,9,9,9,9,9,9,9,9,9,9,9,9,9,9,9,Thu Sep 03 2020 08:32:19 GMT+0200 (CEST),The main experiment item,yes,,/Users/ethan/Documents/GitHub/OpenSesame/MemorySpan,no,mono,no,18,no,white,no,no,768,legacy,legacy,9618534enter,osweb,1.3.8,enter,k,enter,enter,883,2035,883,392,2,legacy,1599114819736,1024,2,48000,-16,7,experiment,0,even,300669,33,301172,308875,157657,292252,140274,292249,140271,33,33,308875,157657,309762,158061,309763,158062,2082,292252,140274,293517,141549,294787,142836,296075,144123,297362,145394,298633,146681,299903,147952,MemorySpan_1,0,95750,119,yes,1024
v,j,y,w,3000,w,w,w,w,500,750,0,0,1185,1185,black,no,legacy,legacy,legacy,0,letters,uniform,,6,0,0,0,,3,,0,,3,,0,0,0,,3,0,,3,,0,,0,0,,0,,0,,0,,0,,0,,0,,0,,0,,0,Thu Sep 03 2020 08:32:17 GMT+0200 (Centraleuropæisk sommertid),The main experiment item,yes,,/Users/ethan/Documents/GitHub/OpenSesame/MemorySpan,no,mono,no,18,no,white,no,no,768,legacy,legacy,vjyenter,osweb,1.3.8,enter,k,,enter,2220,1912,,2220,2,legacy,1599114745836,1024,2,48000,-16,3,experiment,1,odd,7357,28,7866,,13466,,1964,,1963,28,28,,13466,,15691,,15692,1942,,1964,,3241,,4524,,,,,,,,,MemorySpan_1,0,4740,4,yes,1024
z,v,y,w,3000,w,w,w,w,500,750,0,0,969,969,black,no,legacy,legacy,legacy,0,letters,uniform,,13,0,1,0,,7,,1,,7,,1,0,0,,7,0,,7,,1,,1,0,,1,,1,,1,,1,,1,,1,,1,,1,,1,Thu Sep 03 2020 08:32:17 GMT+0200 (Centraleuropæisk sommertid),The main experiment item,yes,,/Users/ethan/Documents/GitHub/OpenSesame/MemorySpan,no,mono,no,18,no,white,no,no,768,legacy,legacy,zvyenter,osweb,1.3.8,enter,k,,enter,2090,1912,,2090,2,legacy,1599114745836,1024,2,48000,-16,3,experiment,1,odd,21092,28,21609,,25598,,15711,,15710,28,28,,25598,,27691,,27692,1942,,15711,,16992,,18275,,,,,,,,,MemorySpan_1,0,7751,8,yes,1024
z,x,m,y,3000,w,w,w,w,500,750,0,0,1063,1063,black,no,legacy,legacy,legacy,0,letters,uniform,,20,0,2,0,,12,,2,,12,,2,0,0,,12,0,,12,,2,,2,0,,2,,2,,2,,2,,2,,2,,2,,2,,2,Thu Sep 03 2020 08:32:17 GMT+0200 (Centraleuropæisk sommertid),The main experiment item,yes,,/Users/ethan/Documents/GitHub/OpenSesame/MemorySpan,no,mono,no,18,no,white,no,no,768,legacy,legacy,zxmyenter,osweb,1.3.8,enter,k,,enter,4686,1912,,4686,2,legacy,1599114745836,1024,2,48000,-16,4,experiment,1,odd,33860,28,34377,,38850,,27708,,27707,28,28,,38850,,43542,,43543,1942,,27708,,28976,,30259,,31542,,,,,,,MemorySpan_1,0,13814,13,yes,1024
t,q,t,f,3000,w,w,w,w,500,750,0,0,1052,1052,black,no,legacy,legacy,legacy,0,letters,uniform,,27,0,3,0,,21,,3,,21,,3,0,0,,21,0,,21,,3,,3,0,,3,,3,,3,,3,,3,,3,,3,,3,,3,Thu Sep 03 2020 08:32:17 GMT+0200 (Centraleuropæisk sommertid),The main experiment item,yes,,/Users/ethan/Documents/GitHub/OpenSesame/MemorySpan,no,mono,no,18,no,white,no,no,768,legacy,legacy,tqtfenter,osweb,1.3.8,enter,k,,enter,4425,1912,,4425,2,legacy,1599114745836,1024,2,48000,-16,4,experiment,1,odd,49710,28,50212,,58253,,43558,,43557,28,28,,58253,,62694,,62696,1942,,43558,,44827,,46111,,47393,,,,,,,MemorySpan_1,0,23134,22,yes,1024
d,y,v,f,3000,x,w,w,w,500,750,0,0,1088,1088,black,no,legacy,legacy,legacy,0,letters,uniform,,34,0,4,0,,27,,4,,27,,4,0,0,,27,0,,27,,4,,4,0,,4,,4,,4,,4,,4,,4,,4,,4,,4,Thu Sep 03 2020 08:32:17 GMT+0200 (Centraleuropæisk sommertid),The main experiment item,yes,,/Users/ethan/Documents/GitHub/OpenSesame/MemorySpan,no,mono,no,18,no,white,no,no,768,legacy,legacy,dyvfxenter,osweb,1.3.8,enter,k,,enter,5660,1912,,5660,2,legacy,1599114745836,1024,2,48000,-16,5,experiment,1,odd,69645,28,70163,,74937,,62714,,62713,28,28,,74937,,80611,,80613,1942,,62714,,63995,,65278,,66562,,67846,,,,,MemorySpan_1,0,30473,28,yes,1024
i,m,v,t,3000,k,w,w,w,500,750,0,0,1086,1086,black,no,legacy,legacy,legacy,0,letters,uniform,,41,0,5,0,,33,,5,,33,,5,0,0,,33,0,,33,,5,,5,0,,5,,5,,5,,5,,5,,5,,5,,5,,5,Thu Sep 03 2020 08:32:17 GMT+0200 (Centraleuropæisk sommertid),The main experiment item,yes,,/Users/ethan/Documents/GitHub/OpenSesame/MemorySpan,no,mono,no,18,no,white,no,no,768,legacy,legacy,imvtkenter,osweb,1.3.8,enter,k,,enter,4253,1912,,4253,2,legacy,1599114745836,1024,2,48000,-16,5,experiment,1,odd,87530,28,88048,,93338,,80631,,80631,28,28,,93338,,97596,,97598,1942,,80631,,81896,,83180,,84463,,85730,,,,,MemorySpan_1,0,36918,34,yes,1024
g,r,y,p,3000,y,r,w,w,500,750,0,0,1056,1056,black,no,legacy,legacy,legacy,0,letters,uniform,,48,0,6,0,,40,,6,,40,,6,0,0,,40,0,,40,,6,,6,0,,6,,6,,6,,6,,6,,6,,6,,6,,6,Thu Sep 03 2020 08:32:17 GMT+0200 (Centraleuropæisk sommertid),The main experiment item,yes,,/Users/ethan/Documents/GitHub/OpenSesame/MemorySpan,no,mono,no,18,no,white,no,no,768,legacy,legacy,grypyrenter,osweb,1.3.8,enter,k,,enter,4163,1912,,4163,2,legacy,1599114745836,1024,2,48000,-16,6,experiment,1,odd,105297,28,105814,,111156,,97615,,97614,28,28,,111156,,115331,,115332,1942,,97615,,98898,,100181,,101464,,102748,,104015,,,MemorySpan_1,0,43289,41,yes,1024
i,m,u,u,3000,e,r,w,w,500,750,0,0,1053,1053,black,no,legacy,legacy,legacy,0,letters,uniform,,55,0,7,0,,47,,7,,47,,7,0,0,,47,0,,47,,7,,7,0,,7,,7,,7,,7,,7,,7,,7,,7,,7,Thu Sep 03 2020 08:32:17 GMT+0200 (Centraleuropæisk sommertid),The main experiment item,yes,,/Users/ethan/Documents/GitHub/OpenSesame/MemorySpan,no,mono,no,18,no,white,no,no,768,legacy,legacy,imuuerenter,osweb,1.3.8,enter,k,,enter,5464,1912,,5464,2,legacy,1599114745836,1024,2,48000,-16,6,experiment,1,odd,122999,28,123517,,128423,,115351,,115350,28,28,,128423,,133899,,133901,1942,,115351,,116631,,117899,,119165,,120433,,121716,,,MemorySpan_1,0,50559,48,yes,1024
v,e,z,g,3000,s,q,l,w,500,750,0,0,1092,1092,black,no,legacy,legacy,legacy,0,letters,uniform,,62,0,8,0,,55,,8,,55,,8,0,0,,55,0,,55,,8,,8,0,,8,,8,,8,,8,,8,,8,,8,,8,,8,Thu Sep 03 2020 08:32:17 GMT+0200 (Centraleuropæisk sommertid),The main experiment item,yes,,/Users/ethan/Documents/GitHub/OpenSesame/MemorySpan,no,mono,no,18,no,white,no,no,768,legacy,legacy,vezgxelenter,osweb,1.3.8,enter,k,,enter,2346,1912,,2346,2,legacy,1599114745836,1024,2,48000,-16,7,experiment,1,odd,142383,28,142885,,154225,,133919,,133918,28,28,,154225,,156584,,156584,1942,,133919,,135200,,136484,,137767,,139050,,140334,,141617,MemorySpan_1,0,61129,56,yes,1024
u,p,t,x,3000,i,p,f,w,500,750,0,0,1079,1079,black,no,legacy,legacy,legacy,0,letters,uniform,,69,0,9,0,,69,,9,,69,,9,0,0,,69,0,,69,,9,,9,0,,9,,9,,9,,9,,9,,9,,9,,9,,9,Thu Sep 03 2020 08:32:17 GMT+0200 (Centraleuropæisk sommertid),The main experiment item,yes,,/Users/ethan/Documents/GitHub/OpenSesame/MemorySpan,no,mono,no,18,no,white,no,no,768,legacy,legacy,uptximfenter,osweb,1.3.8,enter,k,,enter,3725,1912,,3725,2,legacy,1599114745836,1024,2,48000,-16,7,experiment,1,odd,165051,28,165568,,179458,,156603,,156602,28,28,,179458,,183186,,183187,1942,,156603,,157885,,159169,,160451,,161735,,163019,,164285,MemorySpan_1,0,75513,70,yes,1024
3,9,5,w,3000,w,w,w,w,500,750,0,0,1065,1065,black,no,legacy,legacy,legacy,0,numbers,uniform,,76,0,10,0,3,69,0,9,3,69,0,9,0,0,3,69,0,3,69,0,9,0,9,0,0,9,0,9,0,9,0,9,0,9,0,9,0,9,0,9,0,9,Thu Sep 03 2020 08:32:17 GMT+0200 (Centraleuropæisk sommertid),The main experiment item,yes,,/Users/ethan/Documents/GitHub/OpenSesame/MemorySpan,no,mono,no,18,no,white,no,no,768,legacy,legacy,395enter,osweb,1.3.8,enter,k,enter,enter,2282,1912,2282,3725,2,legacy,1599114745836,1024,2,48000,-16,3,experiment,1,odd,188603,28,189121,193226,179458,183203,156603,183203,156602,28,28,193226,179458,195520,183186,195521,183187,1942,183203,156603,184486,157885,185770,159169,,160451,,161735,,163019,,164285,MemorySpan_1,0,78829,74,yes,1024
1,8,3,w,3000,w,w,w,w,500,750,0,0,1057,1057,black,no,legacy,legacy,legacy,0,numbers,uniform,,83,0,11,0,7,69,1,9,7,69,1,9,0,0,7,69,0,7,69,1,9,1,9,0,1,9,1,9,1,9,1,9,1,9,1,9,1,9,1,9,1,9,Thu Sep 03 2020 08:32:17 GMT+0200 (Centraleuropæisk sommertid),The main experiment item,yes,,/Users/ethan/Documents/GitHub/OpenSesame/MemorySpan,no,mono,no,18,no,white,no,no,768,legacy,legacy,183enter,osweb,1.3.8,enter,k,enter,enter,2257,1912,2257,3725,2,legacy,1599114745836,1024,2,48000,-16,3,experiment,1,odd,200921,28,201439,205879,179458,195539,156603,195538,156602,28,28,205879,179458,208137,183186,208138,183187,1942,195539,156603,196821,157885,198104,159169,,160451,,161735,,163019,,164285,MemorySpan_1,0,82457,78,yes,1024
6,5,5,4,3000,w,w,w,w,500,750,0,0,1053,1053,black,no,legacy,legacy,legacy,0,numbers,uniform,,90,0,12,0,12,69,2,9,12,69,2,9,0,0,12,69,0,12,69,2,9,2,9,0,2,9,2,9,2,9,2,9,2,9,2,9,2,9,2,9,2,9,Thu Sep 03 2020 08:32:17 GMT+0200 (Centraleuropæisk sommertid),The main experiment item,yes,,/Users/ethan/Documents/GitHub/OpenSesame/MemorySpan,no,mono,no,18,no,white,no,no,768,legacy,legacy,6554enter,osweb,1.3.8,enter,k,enter,enter,3456,1912,3456,3725,2,legacy,1599114745836,1024,2,48000,-16,4,experiment,1,odd,214288,28,214790,219392,179458,208155,156603,208155,156602,28,28,219392,179458,222856,183186,222857,183187,1942,208155,156603,209437,157885,210689,159169,211973,160451,,161735,,163019,,164285,MemorySpan_1,0,87434,83,yes,1024
5,5,5,1,3000,w,w,w,w,500,750,0,0,1124,1124,black,no,legacy,legacy,legacy,0,numbers,uniform,,97,0,13,0,17,69,3,9,17,69,3,9,0,0,17,69,0,17,69,3,9,3,9,0,3,9,3,9,3,9,3,9,3,9,3,9,3,9,3,9,3,9,Thu Sep 03 2020 08:32:17 GMT+0200 (Centraleuropæisk sommertid),The main experiment item,yes,,/Users/ethan/Documents/GitHub/OpenSesame/MemorySpan,no,mono,no,18,no,white,no,no,768,legacy,legacy,5551enter,osweb,1.3.8,enter,k,enter,enter,10131,1912,10131,3725,2,legacy,1599114745836,1024,2,48000,-16,4,experiment,1,odd,229040,28,229556,233965,179458,222875,156603,222875,156602,28,28,233965,179458,244107,183186,244109,183187,1942,222875,156603,224156,157885,225439,159169,226724,160451,,161735,,163019,,164285,MemorySpan_1,0,98898,88,yes,1024
5,2,4,1,3000,2,w,w,w,500,750,0,0,1134,1134,black,no,legacy,legacy,legacy,0,numbers,uniform,,104,0,14,0,23,69,4,9,23,69,4,9,0,0,23,69,0,23,69,4,9,4,9,0,4,9,4,9,4,9,4,9,4,9,4,9,4,9,4,9,4,9,Thu Sep 03 2020 08:32:17 GMT+0200 (Centraleuropæisk sommertid),The main experiment item,yes,,/Users/ethan/Documents/GitHub/OpenSesame/MemorySpan,no,mono,no,18,no,white,no,no,768,legacy,legacy,52412enter,osweb,1.3.8,enter,k,enter,enter,5690,1912,5690,3725,2,legacy,1599114745836,1024,2,48000,-16,5,experiment,1,odd,251058,28,251579,256683,179458,244128,156603,244127,156602,28,28,256683,179458,262376,183186,262377,183187,1942,244128,156603,245408,157885,246691,159169,247975,160451,249258,161735,,163019,,164285,MemorySpan_1,0,106577,94,yes,1024
2,9,6,4,3000,6,w,w,w,500,750,0,0,1113,1113,black,no,legacy,legacy,legacy,0,numbers,uniform,,111,0,15,0,29,69,5,9,29,69,5,9,0,0,29,69,0,29,69,5,9,5,9,0,5,9,5,9,5,9,5,9,5,9,5,9,5,9,5,9,5,9,Thu Sep 03 2020 08:32:17 GMT+0200 (Centraleuropæisk sommertid),The main experiment item,yes,,/Users/ethan/Documents/GitHub/OpenSesame/MemorySpan,no,mono,no,18,no,white,no,no,768,legacy,legacy,29646enter,osweb,1.3.8,enter,k,enter,enter,813,1912,813,3725,2,legacy,1599114745836,1024,2,48000,-16,5,experiment,1,odd,269309,28,269825,276884,179458,262393,156603,262393,156602,28,28,276884,179458,277709,183186,277710,183187,1942,262393,156603,263675,157885,264958,159169,266243,160451,267526,161735,,163019,,164285,MemorySpan_1,0,111347,100,yes,1024
4,3,3,6,3000,4,5,w,w,500,750,0,0,1073,1073,black,no,legacy,legacy,legacy,0,numbers,uniform,,118,0,16,0,36,69,6,9,36,69,6,9,0,0,36,69,0,36,69,6,9,6,9,0,6,9,6,9,6,9,6,9,6,9,6,9,6,9,6,9,6,9,Thu Sep 03 2020 08:32:17 GMT+0200 (Centraleuropæisk sommertid),The main experiment item,yes,,/Users/ethan/Documents/GitHub/OpenSesame/MemorySpan,no,mono,no,18,no,white,no,no,768,legacy,legacy,433646enter,osweb,1.3.8,enter,k,enter,enter,797,1912,797,3725,2,legacy,1599114745836,1024,2,48000,-16,6,experiment,1,odd,285427,28,285943,291703,179458,277730,156603,277729,156602,28,28,291703,179458,292510,183186,292510,183187,1942,277730,156603,279010,157885,280294,159169,281576,160451,282859,161735,284144,163019,,164285,MemorySpan_1,0,114808,107,yes,1024
3,1,8,4,3000,4,4,w,w,500,750,0,0,1074,1074,black,no,legacy,legacy,legacy,0,numbers,uniform,,125,0,17,0,43,69,7,9,43,69,7,9,0,0,43,69,0,43,69,7,9,7,9,0,7,9,7,9,7,9,7,9,7,9,7,9,7,9,7,9,7,9,Thu Sep 03 2020 08:32:17 GMT+0200 (Centraleuropæisk sommertid),The main experiment item,yes,,/Users/ethan/Documents/GitHub/OpenSesame/MemorySpan,no,mono,no,18,no,white,no,no,768,legacy,legacy,318444enter,osweb,1.3.8,enter,k,enter,enter,5689,1912,5689,3725,2,legacy,1599114745836,1024,2,48000,-16,6,experiment,1,odd,300211,28,300713,305718,179458,292528,156603,292527,156602,28,28,305718,179458,311411,183186,311412,183187,1942,292528,156603,293811,157885,295094,159169,296377,160451,297645,161735,298928,163019,,164285,MemorySpan_1,0,122410,114,yes,1024
6,3,9,9,3000,6,5,4,w,500,750,0,0,1074,1074,black,no,legacy,legacy,legacy,0,numbers,uniform,,132,0,18,0,51,69,8,9,51,69,8,9,0,0,51,69,0,51,69,8,9,8,9,0,8,9,8,9,8,9,8,9,8,9,8,9,8,9,8,9,8,9,Thu Sep 03 2020 08:32:17 GMT+0200 (Centraleuropæisk sommertid),The main experiment item,yes,,/Users/ethan/Documents/GitHub/OpenSesame/MemorySpan,no,mono,no,18,no,white,no,no,768,legacy,legacy,9639943enter,osweb,1.3.8,enter,k,enter,enter,2218,1912,2218,3725,2,legacy,1599114745836,1024,2,48000,-16,7,experiment,1,odd,319846,28,320363,329871,179458,311426,156603,311425,156602,28,28,329871,179458,332096,183186,332097,183187,1942,311426,156603,312696,157885,313962,159169,315246,160451,316529,161735,317812,163019,319079,164285,MemorySpan_1,0,130998,122,yes,1024
9,6,1,8,3000,5,3,4,w,500,750,0,0,1049,1049,black,no,legacy,legacy,legacy,0,numbers,uniform,,139,0,19,0,59,69,9,9,59,69,9,9,0,0,59,69,0,59,69,9,9,9,9,0,9,9,9,9,9,9,9,9,9,9,9,9,9,9,9,9,9,9,Thu Sep 03 2020 08:32:17 GMT+0200 (Centraleuropæisk sommertid),The main experiment item,yes,,/Users/ethan/Documents/GitHub/OpenSesame/MemorySpan,no,mono,no,18,no,white,no,no,768,legacy,legacy,9618534enter,osweb,1.3.8,enter,k,enter,enter,1961,1912,1961,3725,2,legacy,1599114745836,1024,2,48000,-16,7,experiment,1,odd,340531,28,341048,347605,179458,332115,156603,332115,156602,28,28,347605,179458,349581,183186,349581,183187,1942,332115,156603,333396,157885,334664,159169,335947,160451,337214,161735,338496,163019,339764,164285,MemorySpan_1,0,136377,130,yes,1024
v,j,y,w,3000,w,w,w,w,500,750,0,0,607,607,black,no,legacy,legacy,legacy,0,letters,uniform,,6,0,0,0,,3,,0,,3,,0,0,0,,3,0,,3,,0,,0,0,,0,,0,,0,,0,,0,,0,,0,,0,,0,Thu Sep 03 2020 08:32:13 GMT+0200 (Centraleuropæisk sommertid),The main experiment item,yes,,/Users/ethan/Documents/GitHub/OpenSesame/MemorySpan,no,mono,no,18,no,white,no,no,768,legacy,legacy,vjyenter,osweb,1.3.8,enter,space,,enter,901,6819,,901,2,legacy,1599114765582,1024,2,48000,-16,3,experiment,0,even,12291,42,12816,,17437,,6899,,6899,42,42,,17437,,18342,,18343,6863,,6899,,8175,,9458,,,,,,,,,MemorySpan_1,0,2426,4,yes,1024
z,v,y,w,3000,w,w,w,w,500,750,0,0,678,678,black,no,legacy,legacy,legacy,0,letters,uniform,,13,0,1,0,,7,,1,,7,,1,0,0,,7,0,,7,,1,,1,0,,1,,1,,1,,1,,1,,1,,1,,1,,1,Thu Sep 03 2020 08:32:13 GMT+0200 (Centraleuropæisk sommertid),The main experiment item,yes,,/Users/ethan/Documents/GitHub/OpenSesame/MemorySpan,no,mono,no,18,no,white,no,no,768,legacy,legacy,zvyenter,osweb,1.3.8,enter,space,,enter,840,6819,,840,2,legacy,1599114765582,1024,2,48000,-16,3,experiment,0,even,23775,42,24293,,29558,,18379,,18378,42,42,,29558,,30409,,30410,6863,,18379,,19659,,20942,,,,,,,,,MemorySpan_1,0,5421,8,yes,1024
z,x,m,y,3000,w,w,w,w,500,750,0,0,801,801,black,no,legacy,legacy,legacy,0,letters,uniform,,20,0,2,0,,12,,2,,12,,2,0,0,,12,0,,12,,2,,2,0,,2,,2,,2,,2,,2,,2,,2,,2,,2,Thu Sep 03 2020 08:32:13 GMT+0200 (Centraleuropæisk sommertid),The main experiment item,yes,,/Users/ethan/Documents/GitHub/OpenSesame/MemorySpan,no,mono,no,18,no,white,no,no,768,legacy,legacy,zxmyenter,osweb,1.3.8,enter,space,,enter,1932,6819,,1932,2,legacy,1599114765582,1024,2,48000,-16,4,experiment,0,even,36609,42,37111,,43292,,30443,,30443,42,42,,43292,,45227,,45228,6863,,30443,,31727,,33009,,34293,,,,,,,MemorySpan_1,0,10409,13,yes,1024
t,q,t,f,3000,w,w,w,w,500,750,0,0,702,702,black,no,legacy,legacy,legacy,0,letters,uniform,,27,0,3,0,,17,,3,,17,,3,0,0,,17,0,,17,,3,,3,0,,3,,3,,3,,3,,3,,3,,3,,3,,3,Thu Sep 03 2020 08:32:13 GMT+0200 (Centraleuropæisk sommertid),The main experiment item,yes,,/Users/ethan/Documents/GitHub/OpenSesame/MemorySpan,no,mono,no,18,no,white,no,no,768,legacy,legacy,tqtfenter,osweb,1.3.8,enter,space,,enter,604,6819,,604,2,legacy,1599114765582,1024,2,48000,-16,4,experiment,0,even,51428,42,51944,,56694,,45263,,45263,42,42,,56694,,57311,,57312,6863,,45263,,46544,,47827,,49110,,,,,,,MemorySpan_1,0,12627,18,yes,1024
d,y,v,f,3000,x,w,w,w,500,750,0,0,734,734,black,no,legacy,legacy,legacy,0,letters,uniform,,34,0,4,0,,28,,4,,28,,4,0,0,,28,0,,28,,4,,4,0,,4,,4,,4,,4,,4,,4,,4,,4,,4,Thu Sep 03 2020 08:32:13 GMT+0200 (Centraleuropæisk sommertid),The main experiment item,yes,,/Users/ethan/Documents/GitHub/OpenSesame/MemorySpan,no,mono,no,18,no,white,no,no,768,legacy,legacy,dyvxfenter,osweb,1.3.8,enter,space,,enter,2805,6819,,2805,2,legacy,1599114765582,1024,2,48000,-16,5,experiment,0,even,64262,42,64779,,73894,,57344,,57344,42,42,,73894,,76713,,76713,6863,,57344,,58628,,59911,,61195,,62462,,,,,MemorySpan_1,0,21296,29,yes,1024
i,m,v,t,3000,k,w,w,w,500,750,0,0,728,728,black,no,legacy,legacy,legacy,0,letters,uniform,,41,0,5,0,,34,,5,,34,,5,0,0,,34,0,,34,,5,,5,0,,5,,5,,5,,5,,5,,5,,5,,5,,5,Thu Sep 03 2020 08:32:13 GMT+0200 (Centraleuropæisk sommertid),The main experiment item,yes,,/Users/ethan/Documents/GitHub/OpenSesame/MemorySpan,no,mono,no,18,no,white,no,no,768,legacy,legacy,ymvtkenter,osweb,1.3.8,enter,space,,enter,808,6819,,808,2,legacy,1599114765582,1024,2,48000,-16,5,experiment,0,even,83679,42,84181,,90695,,76749,,76749,42,42,,90695,,91513,,91514,6863,,76749,,78030,,79313,,80596,,81879,,,,,MemorySpan_1,0,25466,35,yes,1024
g,r,y,p,3000,y,r,w,w,500,750,0,0,702,702,black,no,legacy,legacy,legacy,0,letters,uniform,,48,0,6,0,,41,,6,,41,,6,0,0,,41,0,,41,,6,,6,0,,6,,6,,6,,6,,6,,6,,6,,6,,6,Thu Sep 03 2020 08:32:13 GMT+0200 (Centraleuropæisk sommertid),The main experiment item,yes,,/Users/ethan/Documents/GitHub/OpenSesame/MemorySpan,no,mono,no,18,no,white,no,no,768,legacy,legacy,grypyrenter,osweb,1.3.8,enter,space,,enter,1643,6819,,1643,2,legacy,1599114765582,1024,2,48000,-16,6,experiment,0,even,99230,42,99748,,105333,,91550,,91549,42,42,,105333,,106980,,106981,6863,,91549,,92814,,94097,,95380,,96664,,97948,,,MemorySpan_1,0,29490,42,yes,1024
i,m,u,u,3000,e,r,w,w,500,750,0,0,664,664,black,no,legacy,legacy,legacy,0,letters,uniform,,55,0,7,0,,48,,7,,48,,7,0,0,,48,0,,48,,7,,7,0,,7,,7,,7,,7,,7,,7,,7,,7,,7,Thu Sep 03 2020 08:32:13 GMT+0200 (Centraleuropæisk sommertid),The main experiment item,yes,,/Users/ethan/Documents/GitHub/OpenSesame/MemorySpan,no,mono,no,18,no,white,no,no,768,legacy,legacy,imuueventer,osweb,1.3.8,enter,space,,enter,474,6819,,474,2,legacy,1599114765582,1024,2,48000,-16,6,experiment,0,even,114682,42,115199,,120931,,107021,,107020,42,42,,120931,,121415,,121416,6863,,107021,,108297,,109564,,110832,,112115,,113398,,,MemorySpan_1,0,32530,49,yes,1024
v,e,z,g,3000,s,q,l,w,500,750,0,0,671,671,black,no,legacy,legacy,legacy,0,letters,uniform,,62,0,8,0,,56,,8,,56,,8,0,0,,56,0,,56,,8,,8,0,,8,,8,,8,,8,,8,,8,,8,,8,,8,Thu Sep 03 2020 08:32:13 GMT+0200 (Centraleuropæisk sommertid),The main experiment item,yes,,/Users/ethan/Documents/GitHub/OpenSesame/MemorySpan,no,mono,no,18,no,white,no,no,768,legacy,legacy,viquelsenter,osweb,1.3.8,enter,space,,enter,449,6819,,449,2,legacy,1599114765582,1024,2,48000,-16,7,experiment,0,even,129899,42,130417,,138898,,121447,,121447,42,42,,138898,,139348,,139349,6863,,121447,,122716,,123999,,125283,,126567,,127849,,129133,MemorySpan_1,0,38264,57,yes,1024
u,p,t,x,3000,i,p,f,w,500,750,0,0,704,704,black,no,legacy,legacy,legacy,0,letters,uniform,,69,0,9,0,,64,,9,,64,,9,0,0,,64,0,,64,,9,,9,0,,9,,9,,9,,9,,9,,9,,9,,9,,9,Thu Sep 03 2020 08:32:13 GMT+0200 (Centraleuropæisk sommertid),The main experiment item,yes,,/Users/ethan/Documents/GitHub/OpenSesame/MemorySpan,no,mono,no,18,no,white,no,no,768,legacy,legacy,quiptkxenter,osweb,1.3.8,enter,space,,enter,569,6819,,569,2,legacy,1599114765582,1024,2,48000,-16,7,experiment,0,even,147850,42,148368,,158500,,139392,,139392,42,42,,158501,,159085,,159086,6863,,139392,,140667,,141950,,143234,,144517,,145800,,147085,MemorySpan_1,0,45741,65,yes,1024
3,9,5,w,3000,w,w,w,w,500,750,0,0,679,679,black,no,legacy,legacy,legacy,0,numbers,uniform,,76,0,10,0,3,64,0,9,3,64,0,9,0,0,3,64,0,3,64,0,9,0,9,0,0,9,0,9,0,9,0,9,0,9,0,9,0,9,0,9,0,9,Thu Sep 03 2020 08:32:13 GMT+0200 (Centraleuropæisk sommertid),The main experiment item,yes,,/Users/ethan/Documents/GitHub/OpenSesame/MemorySpan,no,mono,no,18,no,white,no,no,768,legacy,legacy,395enter,osweb,1.3.8,enter,space,enter,enter,430,6819,430,569,2,legacy,1599114765582,1024,2,48000,-16,3,experiment,0,even,164501,42,165019,168817,158500,159129,139392,159129,139392,42,42,168817,158501,169251,159085,169252,159086,6863,159129,139392,160402,140667,161684,141950,,143234,,144517,,145800,,147085,MemorySpan_1,0,46865,69,yes,1024
1,8,3,w,3000,w,w,w,w,500,750,0,0,663,663,black,no,legacy,legacy,legacy,0,numbers,uniform,,83,0,11,0,7,64,1,9,7,64,1,9,0,0,7,64,0,7,64,1,9,1,9,0,1,9,1,9,1,9,1,9,1,9,1,9,1,9,1,9,1,9,Thu Sep 03 2020 08:32:13 GMT+0200 (Centraleuropæisk sommertid),The main experiment item,yes,,/Users/ethan/Documents/GitHub/OpenSesame/MemorySpan,no,mono,no,18,no,white,no,no,768,legacy,legacy,183enter,osweb,1.3.8,enter,space,enter,enter,478,6819,478,569,2,legacy,1599114765582,1024,2,48000,-16,3,experiment,0,even,174686,42,175203,179317,158500,169297,139392,169296,139392,42,42,179317,158501,179803,159085,179804,159086,6863,169297,139392,170569,140667,171853,141950,,143234,,144517,,145800,,147085,MemorySpan_1,0,48372,73,yes,1024
6,5,5,4,3000,w,w,w,w,500,750,0,0,644,644,black,no,legacy,legacy,legacy,0,numbers,uniform,,90,0,12,0,12,64,2,9,12,64,2,9,0,0,12,64,0,12,64,2,9,2,9,0,2,9,2,9,2,9,2,9,2,9,2,9,2,9,2,9,2,9,Thu Sep 03 2020 08:32:13 GMT+0200 (Centraleuropæisk sommertid),The main experiment item,yes,,/Users/ethan/Documents/GitHub/OpenSesame/MemorySpan,no,mono,no,18,no,white,no,no,768,legacy,legacy,6554enter,osweb,1.3.8,enter,space,enter,enter,495,6819,495,569,2,legacy,1599114765582,1024,2,48000,-16,4,experiment,0,even,186003,42,186520,190986,158500,179839,139392,179839,139392,42,42,190986,158501,191486,159085,191487,159086,6863,179839,139392,181120,140667,182403,141950,183686,143234,,144517,,145800,,147085,MemorySpan_1,0,50193,78,yes,1024
5,5,5,1,3000,w,w,w,w,500,750,0,0,624,624,black,no,legacy,legacy,legacy,0,numbers,uniform,,97,0,13,0,17,64,3,9,17,64,3,9,0,0,17,64,0,17,64,3,9,3,9,0,3,9,3,9,3,9,3,9,3,9,3,9,3,9,3,9,3,9,Thu Sep 03 2020 08:32:13 GMT+0200 (Centraleuropæisk sommertid),The main experiment item,yes,,/Users/ethan/Documents/GitHub/OpenSesame/MemorySpan,no,mono,no,18,no,white,no,no,768,legacy,legacy,5551enter,osweb,1.3.8,enter,space,enter,enter,488,6819,488,569,2,legacy,1599114765582,1024,2,48000,-16,4,experiment,0,even,197688,42,198204,202435,158500,191527,139392,191526,139392,42,42,202435,158501,202938,159085,202939,159086,6863,191527,139392,192804,140667,194087,141950,195371,143234,,144517,,145800,,147085,MemorySpan_1,0,51786,83,yes,1024
5,2,4,1,3000,2,w,w,w,500,750,0,0,621,621,black,no,legacy,legacy,legacy,0,numbers,uniform,,104,0,14,0,23,64,4,9,23,64,4,9,0,0,23,64,0,23,64,4,9,4,9,0,4,9,4,9,4,9,4,9,4,9,4,9,4,9,4,9,4,9,Thu Sep 03 2020 08:32:13 GMT+0200 (Centraleuropæisk sommertid),The main experiment item,yes,,/Users/ethan/Documents/GitHub/OpenSesame/MemorySpan,no,mono,no,18,no,white,no,no,768,legacy,legacy,52412enter,osweb,1.3.8,enter,space,enter,enter,140,6819,140,569,2,legacy,1599114765582,1024,2,48000,-16,5,experiment,0,even,209889,42,210409,216886,158500,202970,139392,202969,139392,42,42,216886,158501,217039,159085,217040,159086,6863,202970,139392,204239,140667,205522,141950,206805,143234,208088,144517,,145800,,147085,MemorySpan_1,0,55272,89,yes,1024
2,9,6,4,3000,6,w,w,w,500,750,0,0,620,620,black,no,legacy,legacy,legacy,0,numbers,uniform,,111,0,15,0,29,64,5,9,29,64,5,9,0,0,29,64,0,29,64,5,9,5,9,0,5,9,5,9,5,9,5,9,5,9,5,9,5,9,5,9,5,9,Thu Sep 03 2020 08:32:13 GMT+0200 (Centraleuropæisk sommertid),The main experiment item,yes,,/Users/ethan/Documents/GitHub/OpenSesame/MemorySpan,no,mono,no,18,no,white,no,no,768,legacy,legacy,24696enter,osweb,1.3.8,enter,space,enter,enter,473,6819,473,569,2,legacy,1599114765582,1024,2,48000,-16,5,experiment,0,even,224005,42,224523,230871,158500,217079,139392,217078,139392,42,42,230871,158501,231356,159085,231357,159086,6863,217079,139392,218355,140667,219639,141950,220922,143234,222206,144517,,145800,,147085,MemorySpan_1,0,58944,95,yes,1024
4,3,3,6,3000,4,5,w,w,500,750,0,0,612,612,black,no,legacy,legacy,legacy,0,numbers,uniform,,118,0,16,0,38,64,6,9,38,64,6,9,0,0,38,64,0,38,64,6,9,6,9,0,6,9,6,9,6,9,6,9,6,9,6,9,6,9,6,9,6,9,Thu Sep 03 2020 08:32:13 GMT+0200 (Centraleuropæisk sommertid),The main experiment item,yes,,/Users/ethan/Documents/GitHub/OpenSesame/MemorySpan,no,mono,no,18,no,white,no,no,768,legacy,legacy,433645enter,osweb,1.3.8,enter,space,enter,enter,818,6819,818,569,2,legacy,1599114765582,1024,2,48000,-16,6,experiment,0,even,239090,42,239609,246688,158500,231397,139392,231397,139392,42,42,246688,158501,247507,159085,247508,159086,6863,231397,139392,232673,140667,233957,141950,235240,143234,236524,144517,237807,145800,,147085,MemorySpan_1,0,63637,104,yes,1024
3,1,8,4,3000,4,4,w,w,500,750,0,0,611,611,black,no,legacy,legacy,legacy,0,numbers,uniform,,125,0,17,0,45,64,7,9,45,64,7,9,0,0,45,64,0,45,64,7,9,7,9,0,7,9,7,9,7,9,7,9,7,9,7,9,7,9,7,9,7,9,Thu Sep 03 2020 08:32:13 GMT+0200 (Centraleuropæisk sommertid),The main experiment item,yes,,/Users/ethan/Documents/GitHub/OpenSesame/MemorySpan,no,mono,no,18,no,white,no,no,768,legacy,legacy,318844enter,osweb,1.3.8,enter,space,enter,enter,1440,6819,1440,569,2,legacy,1599114765582,1024,2,48000,-16,6,experiment,0,even,255225,42,255741,261641,158500,247539,139392,247539,139392,42,42,261641,158501,263092,159085,263092,159086,6863,247539,139392,248808,140667,250091,141950,251375,143234,252658,144517,253941,145800,,147085,MemorySpan_1,0,67782,111,yes,1024
6,3,9,9,3000,6,5,4,w,500,750,0,0,631,631,black,no,legacy,legacy,legacy,0,numbers,uniform,,132,0,18,0,52,64,8,9,52,64,8,9,0,0,52,64,0,52,64,8,9,8,9,0,8,9,8,9,8,9,8,9,8,9,8,9,8,9,8,9,8,9,Thu Sep 03 2020 08:32:13 GMT+0200 (Centraleuropæisk sommertid),The main experiment item,yes,,/Users/ethan/Documents/GitHub/OpenSesame/MemorySpan,no,mono,no,18,no,white,no,no,768,legacy,legacy,639945enter,osweb,1.3.8,enter,space,enter,enter,293,6819,293,569,2,legacy,1599114765582,1024,2,48000,-16,7,experiment,0,even,271593,42,272110,281710,158500,263134,139392,263134,139392,42,42,281710,158501,282009,159085,282010,159086,6863,263134,139392,264409,140667,265692,141950,266976,143234,268258,144517,269542,145800,270826,147085,MemorySpan_1,0,74481,118,yes,1024
9,6,1,8,3000,5,3,4,w,500,750,0,0,689,689,black,no,legacy,legacy,legacy,0,numbers,uniform,,139,0,19,0,60,64,9,9,60,64,9,9,0,0,60,64,0,60,64,9,9,9,9,0,9,9,9,9,9,9,9,9,9,9,9,9,9,9,9,9,9,9,Thu Sep 03 2020 08:32:13 GMT+0200 (Centraleuropæisk sommertid),The main experiment item,yes,,/Users/ethan/Documents/GitHub/OpenSesame/MemorySpan,no,mono,no,18,no,white,no,no,768,legacy,legacy,9655534enter,osweb,1.3.8,enter,space,enter,enter,190,6819,190,569,2,legacy,1599114765582,1024,2,48000,-16,7,experiment,0,even,290511,42,291029,306326,158500,282050,139392,282050,139392,42,42,306326,158501,306528,159085,306528,159086,6863,282050,139392,283327,140667,284610,141950,285894,143234,287177,144517,288461,145800,289744,147085,MemorySpan_1,0,86770,126,yes,1024
v,j,y,w,3000,w,w,w,w,500,750,0,0,1015,1015,black,no,legacy,legacy,legacy,0,letters,uniform,,6,0,0,0,,3,,0,,3,,0,0,0,,3,0,,3,,0,,0,0,,0,,0,,0,,0,,0,,0,,0,,0,,0,Thu Sep 03 2020 08:32:10 GMT+0200 (Centraleuropæisk sommertid),The main experiment item,yes,,/Users/ethan/Documents/GitHub/OpenSesame/MemorySpan,no,mono,no,18,no,white,no,no,768,legacy,legacy,vjyenter,osweb,1.3.8,enter,space,,enter,1893,4200,,1893,2,legacy,1599114784736,1024,2,48000,-16,3,experiment,1,odd,9617,25,10124,,15350,,4246,,4245,25,25,,15350,,17244,,17245,4227,,4246,,5516,,6800,,,,,,,,,MemorySpan_1,0,4061,4,yes,1024
z,v,y,w,3000,w,w,w,w,500,750,0,0,745,745,black,no,legacy,legacy,legacy,0,letters,uniform,,13,0,1,0,,7,,1,,7,,1,0,0,,7,0,,7,,1,,1,0,,1,,1,,1,,1,,1,,1,,1,,1,,1,Thu Sep 03 2020 08:32:10 GMT+0200 (Centraleuropæisk sommertid),The main experiment item,yes,,/Users/ethan/Documents/GitHub/OpenSesame/MemorySpan,no,mono,no,18,no,white,no,no,768,legacy,legacy,zvyenter,osweb,1.3.8,enter,space,,enter,580,4200,,580,2,legacy,1599114784736,1024,2,48000,-16,3,experiment,1,odd,22618,25,23136,,27526,,17261,,17260,25,25,,27526,,28121,,28121,4227,,17261,,18530,,19813,,,,,,,,,MemorySpan_1,0,5961,8,yes,1024
z,x,m,y,3000,w,w,w,w,500,750,0,0,655,655,black,no,legacy,legacy,legacy,0,letters,uniform,,20,0,2,0,,12,,2,,12,,2,0,0,,12,0,,12,,2,,2,0,,2,,2,,2,,2,,2,,2,,2,,2,,2,Thu Sep 03 2020 08:32:10 GMT+0200 (Centraleuropæisk sommertid),The main experiment item,yes,,/Users/ethan/Documents/GitHub/OpenSesame/MemorySpan,no,mono,no,18,no,white,no,no,768,legacy,legacy,zxmyenter,osweb,1.3.8,enter,space,,enter,327,4200,,327,2,legacy,1599114784736,1024,2,48000,-16,4,experiment,1,odd,34301,25,34803,,40110,,28138,,28137,25,25,,40110,,40454,,40454,4227,,28138,,29421,,30705,,31984,,,,,,,MemorySpan_1,0,8513,13,yes,1024
t,q,t,f,3000,w,w,w,w,500,750,0,0,637,637,black,no,legacy,legacy,legacy,0,letters,uniform,,27,0,3,0,,17,,3,,17,,3,0,0,,17,0,,17,,3,,3,0,,3,,3,,3,,3,,3,,3,,3,,3,,3,Thu Sep 03 2020 08:32:10 GMT+0200 (Centraleuropæisk sommertid),The main experiment item,yes,,/Users/ethan/Documents/GitHub/OpenSesame/MemorySpan,no,mono,no,18,no,white,no,no,768,legacy,legacy,tqtfenter,osweb,1.3.8,enter,space,,enter,649,4200,,649,2,legacy,1599114784736,1024,2,48000,-16,4,experiment,1,odd,46581,25,47098,,52474,,40470,,40469,25,25,,52474,,53136,,53137,4227,,40470,,41738,,42996,,44279,,,,,,,MemorySpan_1,0,11474,18,yes,1024
d,y,v,f,3000,x,w,w,w,500,750,0,0,644,644,black,no,legacy,legacy,legacy,0,letters,uniform,,34,0,4,0,,23,,4,,23,,4,0,0,,23,0,,23,,4,,4,0,,4,,4,,4,,4,,4,,4,,4,,4,,4,Thu Sep 03 2020 08:32:10 GMT+0200 (Centraleuropæisk sommertid),The main experiment item,yes,,/Users/ethan/Documents/GitHub/OpenSesame/MemorySpan,no,mono,no,18,no,white,no,no,768,legacy,legacy,dyvfxenter,osweb,1.3.8,enter,space,,enter,1296,4200,,1296,2,legacy,1599114784736,1024,2,48000,-16,5,experiment,1,odd,60040,25,60558,,66365,,53152,,53152,25,25,,66365,,67676,,67677,4227,,53152,,54421,,55704,,56988,,58256,,,,,MemorySpan_1,0,15457,24,yes,1024
i,m,v,t,3000,k,w,w,w,500,750,0,0,593,593,black,no,legacy,legacy,legacy,0,letters,uniform,,41,0,5,0,,29,,5,,29,,5,0,0,,29,0,,29,,5,,5,0,,5,,5,,5,,5,,5,,5,,5,,5,,5,Thu Sep 03 2020 08:32:10 GMT+0200 (Centraleuropæisk sommertid),The main experiment item,yes,,/Users/ethan/Documents/GitHub/OpenSesame/MemorySpan,no,mono,no,18,no,white,no,no,768,legacy,legacy,imvtkenter,osweb,1.3.8,enter,space,,enter,489,4200,,489,2,legacy,1599114784736,1024,2,48000,-16,5,experiment,1,odd,74613,25,75121,,80028,,67693,,67693,25,25,,80028,,80522,,80523,4227,,67693,,68976,,70245,,71529,,72812,,,,,MemorySpan_1,0,17775,30,yes,1024
g,r,y,p,3000,y,r,w,w,500,750,0,0,564,564,black,no,legacy,legacy,legacy,0,letters,uniform,,48,0,6,0,,36,,6,,36,,6,0,0,,36,0,,36,,6,,6,0,,6,,6,,6,,6,,6,,6,,6,,6,,6,Thu Sep 03 2020 08:32:10 GMT+0200 (Centraleuropæisk sommertid),The main experiment item,yes,,/Users/ethan/Documents/GitHub/OpenSesame/MemorySpan,no,mono,no,18,no,white,no,no,768,legacy,legacy,grypyrenter,osweb,1.3.8,enter,space,,enter,332,4200,,332,2,legacy,1599114784736,1024,2,48000,-16,6,experiment,1,odd,88166,25,88684,,94556,,80538,,80537,25,25,,94556,,94892,,94892,4227,,80538,,81807,,83074,,84342,,85616,,86883,,,MemorySpan_1,0,20876,37,yes,1024
i,m,u,u,3000,e,r,w,w,500,750,0,0,519,519,black,no,legacy,legacy,legacy,0,letters,uniform,,55,0,7,0,,43,,7,,43,,7,0,0,,43,0,,43,,7,,7,0,,7,,7,,7,,7,,7,,7,,7,,7,,7,Thu Sep 03 2020 08:32:10 GMT+0200 (Centraleuropæisk sommertid),The main experiment item,yes,,/Users/ethan/Documents/GitHub/OpenSesame/MemorySpan,no,mono,no,18,no,white,no,no,768,legacy,legacy,imuuerenter,osweb,1.3.8,enter,space,,enter,295,4200,,295,2,legacy,1599114784736,1024,2,48000,-16,6,experiment,1,odd,102580,25,103097,,107857,,94910,,94910,25,25,,107857,,108168,,108169,4227,,94910,,96177,,97461,,98745,,100029,,101313,,,MemorySpan_1,0,22822,44,yes,1024
v,e,z,g,3000,s,q,l,w,500,750,0,0,559,559,black,no,legacy,legacy,legacy,0,letters,uniform,,62,0,8,0,,50,,8,,50,,8,0,0,,50,0,,50,,8,,8,0,,8,,8,,8,,8,,8,,8,,8,,8,,8,Thu Sep 03 2020 08:32:10 GMT+0200 (Centraleuropæisk sommertid),The main experiment item,yes,,/Users/ethan/Documents/GitHub/OpenSesame/MemorySpan,no,mono,no,18,no,white,no,no,768,legacy,legacy,vesgzlenter,osweb,1.3.8,enter,space,,enter,535,4200,,535,2,legacy,1599114784736,1024,2,48000,-16,7,experiment,1,odd,116638,25,117140,,125384,,108184,,108183,25,25,,125384,,125928,,125929,4227,,108184,,109453,,110736,,112020,,113304,,114588,,115872,MemorySpan_1,0,28521,51,yes,1024
u,p,t,x,3000,i,p,f,w,500,750,0,0,548,548,black,no,legacy,legacy,legacy,0,letters,uniform,,69,0,9,0,,62,,9,,62,,9,0,0,,62,0,,62,,9,,9,0,,9,,9,,9,,9,,9,,9,,9,,9,,9,Thu Sep 03 2020 08:32:10 GMT+0200 (Centraleuropæisk sommertid),The main experiment item,yes,,/Users/ethan/Documents/GitHub/OpenSesame/MemorySpan,no,mono,no,18,no,white,no,no,768,legacy,legacy,upsixlgenter,osweb,1.3.8,enter,space,,enter,712,4200,,712,2,legacy,1599114784736,1024,2,48000,-16,7,experiment,1,odd,134338,25,134856,,143320,,125944,,125943,25,25,,143320,,144047,,144048,4227,,125944,,127213,,128485,,129753,,131020,,132288,,133571,MemorySpan_1,0,34521,63,yes,1024
3,9,5,w,3000,w,w,w,w,500,750,0,0,534,534,black,no,legacy,legacy,legacy,0,numbers,uniform,,76,0,10,0,3,62,0,9,3,62,0,9,0,0,3,62,0,3,62,0,9,0,9,0,0,9,0,9,0,9,0,9,0,9,0,9,0,9,0,9,0,9,Thu Sep 03 2020 08:32:10 GMT+0200 (Centraleuropæisk sommertid),The main experiment item,yes,,/Users/ethan/Documents/GitHub/OpenSesame/MemorySpan,no,mono,no,18,no,white,no,no,768,legacy,legacy,395enter,osweb,1.3.8,enter,space,enter,enter,293,4200,293,712,2,legacy,1599114784736,1024,2,48000,-16,3,experiment,1,odd,149425,25,149942,154015,143320,144064,125944,144063,125943,25,25,154015,143320,154308,144047,154309,144048,4227,144063,125944,145332,127213,146616,128485,,129753,,131020,,132288,,133571,MemorySpan_1,0,35811,67,yes,1024
1,8,3,w,3000,w,w,w,w,500,750,0,0,519,519,black,no,legacy,legacy,legacy,0,numbers,uniform,,83,0,11,0,7,62,1,9,7,62,1,9,0,0,7,62,0,7,62,1,9,1,9,0,1,9,1,9,1,9,1,9,1,9,1,9,1,9,1,9,1,9,Thu Sep 03 2020 08:32:10 GMT+0200 (Centraleuropæisk sommertid),The main experiment item,yes,,/Users/ethan/Documents/GitHub/OpenSesame/MemorySpan,no,mono,no,18,no,white,no,no,768,legacy,legacy,183enter,osweb,1.3.8,enter,space,enter,enter,423,4200,423,712,2,legacy,1599114784736,1024,2,48000,-16,3,experiment,1,odd,159707,25,160225,163879,143320,154323,125944,154322,125943,25,25,163879,143320,164309,144047,164309,144048,4227,154322,125944,155595,127213,156878,128485,,129753,,131020,,132288,,133571,MemorySpan_1,0,36837,71,yes,1024
6,5,5,4,3000,w,w,w,w,500,750,0,0,513,513,black,no,legacy,legacy,legacy,0,numbers,uniform,,90,0,12,0,12,62,2,9,12,62,2,9,0,0,12,62,0,12,62,2,9,2,9,0,2,9,2,9,2,9,2,9,2,9,2,9,2,9,2,9,2,9,Thu Sep 03 2020 08:32:10 GMT+0200 (Centraleuropæisk sommertid),The main experiment item,yes,,/Users/ethan/Documents/GitHub/OpenSesame/MemorySpan,no,mono,no,18,no,white,no,no,768,legacy,legacy,6554enter,osweb,1.3.8,enter,space,enter,enter,532,4200,532,712,2,legacy,1599114784736,1024,2,48000,-16,4,experiment,1,odd,170465,25,170983,175656,143320,164324,125944,164323,125943,25,25,175656,143320,176201,144047,176201,144048,4227,164324,125944,165593,127213,166877,128485,168161,129753,,131020,,132288,,133571,MemorySpan_1,0,38972,76,yes,1024
5,5,5,1,3000,w,w,w,w,500,750,0,0,508,508,black,no,legacy,legacy,legacy,0,numbers,uniform,,97,0,13,0,17,62,3,9,17,62,3,9,0,0,17,62,0,17,62,3,9,3,9,0,3,9,3,9,3,9,3,9,3,9,3,9,3,9,3,9,3,9,Thu Sep 03 2020 08:32:10 GMT+0200 (Centraleuropæisk sommertid),The main experiment item,yes,,/Users/ethan/Documents/GitHub/OpenSesame/MemorySpan,no,mono,no,18,no,white,no,no,768,legacy,legacy,5551enter,osweb,1.3.8,enter,space,enter,enter,388,4200,388,712,2,legacy,1599114784736,1024,2,48000,-16,4,experiment,1,odd,182356,25,182873,187713,143320,176216,125944,176216,125943,25,25,187713,143320,188108,144047,188108,144048,4227,176216,125944,177485,127213,178769,128485,180053,129753,,131020,,132288,,133571,MemorySpan_1,0,41142,81,yes,1024
5,2,4,1,3000,2,w,w,w,500,750,0,0,497,497,black,no,legacy,legacy,legacy,0,numbers,uniform,,104,0,14,0,23,62,4,9,23,62,4,9,0,0,23,62,0,23,62,4,9,4,9,0,4,9,4,9,4,9,4,9,4,9,4,9,4,9,4,9,4,9,Thu Sep 03 2020 08:32:10 GMT+0200 (Centraleuropæisk sommertid),The main experiment item,yes,,/Users/ethan/Documents/GitHub/OpenSesame/MemorySpan,no,mono,no,18,no,white,no,no,768,legacy,legacy,52412enter,osweb,1.3.8,enter,space,enter,enter,443,4200,443,712,2,legacy,1599114784736,1024,2,48000,-16,5,experiment,1,odd,195031,25,195536,200257,143320,188124,125944,188123,125943,25,25,200257,143320,200717,144047,200718,144048,4227,188124,125944,189393,127213,190677,128485,191947,129753,193231,131020,,132288,,133571,MemorySpan_1,0,43210,87,yes,1024
2,9,6,4,3000,6,w,w,w,500,750,0,0,494,494,black,no,legacy,legacy,legacy,0,numbers,uniform,,111,0,15,0,29,62,5,9,29,62,5,9,0,0,29,62,0,29,62,5,9,5,9,0,5,9,5,9,5,9,5,9,5,9,5,9,5,9,5,9,5,9,Thu Sep 03 2020 08:32:10 GMT+0200 (Centraleuropæisk sommertid),The main experiment item,yes,,/Users/ethan/Documents/GitHub/OpenSesame/MemorySpan,no,mono,no,18,no,white,no,no,768,legacy,legacy,29646enter,osweb,1.3.8,enter,space,enter,enter,480,4200,480,712,2,legacy,1599114784736,1024,2,48000,-16,5,experiment,1,odd,207650,25,208167,213518,143320,200733,125944,200733,125943,25,25,213518,143320,214012,144047,214013,144048,4227,200733,125944,202014,127213,203297,128485,204565,129753,205849,131020,,132288,,133571,MemorySpan_1,0,45944,93,yes,1024
4,3,3,6,3000,4,5,w,w,500,750,0,0,485,485,black,no,legacy,legacy,legacy,0,numbers,uniform,,118,0,16,0,35,62,6,9,35,62,6,9,0,0,35,62,0,35,62,6,9,6,9,0,6,9,6,9,6,9,6,9,6,9,6,9,6,9,6,9,6,9,Thu Sep 03 2020 08:32:10 GMT+0200 (Centraleuropæisk sommertid),The main experiment item,yes,,/Users/ethan/Documents/GitHub/OpenSesame/MemorySpan,no,mono,no,18,no,white,no,no,768,legacy,legacy,43365enter,osweb,1.3.8,enter,space,enter,enter,704,4200,704,712,2,legacy,1599114784736,1024,2,48000,-16,6,experiment,1,odd,221717,25,222234,226665,143320,214028,125944,214028,125943,25,25,226665,143320,227376,144047,227377,144048,4227,214028,125944,215297,127213,216581,128485,217865,129753,219149,131020,220433,132288,,133571,MemorySpan_1,0,48001,99,yes,1024
3,1,8,4,3000,4,4,w,w,500,750,0,0,478,478,black,no,legacy,legacy,legacy,0,numbers,uniform,,125,0,17,0,42,62,7,9,42,62,7,9,0,0,42,62,0,42,62,7,9,7,9,0,7,9,7,9,7,9,7,9,7,9,7,9,7,9,7,9,7,9,Thu Sep 03 2020 08:32:10 GMT+0200 (Centraleuropæisk sommertid),The main experiment item,yes,,/Users/ethan/Documents/GitHub/OpenSesame/MemorySpan,no,mono,no,18,no,white,no,no,768,legacy,legacy,318444enter,osweb,1.3.8,enter,space,enter,enter,748,4200,748,712,2,legacy,1599114784736,1024,2,48000,-16,6,experiment,1,odd,235053,25,235571,240578,143320,227391,125944,227391,125943,25,25,240578,143320,241339,144047,241340,144048,4227,227391,125944,228644,127213,229928,128485,231212,129753,232495,131020,233769,132288,,133571,MemorySpan_1,0,50652,106,yes,1024
6,3,9,9,3000,6,5,4,w,500,750,0,0,478,478,black,no,legacy,legacy,legacy,0,numbers,uniform,,132,0,18,0,50,62,8,9,50,62,8,9,0,0,50,62,0,50,62,8,9,8,9,0,8,9,8,9,8,9,8,9,8,9,8,9,8,9,8,9,8,9,Thu Sep 03 2020 08:32:10 GMT+0200 (Centraleuropæisk sommertid),The main experiment item,yes,,/Users/ethan/Documents/GitHub/OpenSesame/MemorySpan,no,mono,no,18,no,white,no,no,768,legacy,legacy,6399654enter,osweb,1.3.8,enter,space,enter,enter,795,4200,795,712,2,legacy,1599114784736,1024,2,48000,-16,7,experiment,1,odd,249800,25,250318,256531,143320,241354,125944,241354,125943,25,25,256531,143320,257343,144047,257344,144048,4227,241354,125944,242624,127213,243898,128485,245182,129753,246466,131020,247749,132288,249033,133571,MemorySpan_1,0,54546,114,yes,1024
9,6,1,8,3000,5,3,4,w,500,750,0,0,488,488,black,no,legacy,legacy,legacy,0,numbers,uniform,,139,0,19,0,58,62,9,9,58,62,9,9,0,0,58,62,0,58,62,9,9,9,9,0,9,9,9,9,9,9,9,9,9,9,9,9,9,9,9,9,9,9,Thu Sep 03 2020 08:32:10 GMT+0200 (Centraleuropæisk sommertid),The main experiment item,yes,,/Users/ethan/Documents/GitHub/OpenSesame/MemorySpan,no,mono,no,18,no,white,no,no,768,legacy,legacy,9618534enter,osweb,1.3.8,enter,space,enter,enter,670,4200,670,712,2,legacy,1599114784736,1024,2,48000,-16,7,experiment,1,odd,265772,25,266290,273681,143320,257359,125944,257358,125943,25,25,273681,143320,274359,144047,274359,144048,4227,257359,125944,258627,127213,259911,128485,261178,129753,262447,131020,263730,132288,265006,133571,MemorySpan_1,0,59476,122,yes,1024
v,j,y,w,3000,w,w,w,w,500,750,0,0,1590,1590,black,no,legacy,legacy,legacy,0,letters,uniform,,6,0,0,0,,3,,0,,3,,0,0,0,,3,0,,3,,0,,0,0,,0,,0,,0,,0,,0,,0,,0,,0,,0,Thu Sep 03 2020 08:32:07 GMT+0200 (Central European Summer Time),The main experiment item,yes,,/Users/ethan/Documents/GitHub/OpenSesame/MemorySpan,no,mono,no,18,no,white,no,no,768,legacy,legacy,vjyenter,osweb,1.3.8,enter,space,,enter,2579,23219,,2579,2,legacy,1599114733911,1024,2,48000,-16,3,experiment,0,even,28690,28,29214,,36066,,23289,,23288,28,28,,36066,,38657,,38658,23256,,23289,,24573,,25857,,,,,,,,,MemorySpan_1,0,6360,4,yes,1024
z,v,y,w,3000,w,w,w,w,500,750,0,0,1331,1331,black,no,legacy,legacy,legacy,0,letters,uniform,,13,0,1,0,,7,,1,,7,,1,0,0,,7,0,,7,,1,,1,0,,1,,1,,1,,1,,1,,1,,1,,1,,1,Thu Sep 03 2020 08:32:07 GMT+0200 (Central European Summer Time),The main experiment item,yes,,/Users/ethan/Documents/GitHub/OpenSesame/MemorySpan,no,mono,no,18,no,white,no,no,768,legacy,legacy,zvyenter,osweb,1.3.8,enter,space,,enter,942,23219,,942,2,legacy,1599114733911,1024,2,48000,-16,3,experiment,0,even,44075,28,44591,,51033,,38684,,38683,28,28,,51034,,51991,,51992,23256,,38684,,39957,,41241,,,,,,,,,MemorySpan_1,0,10651,8,yes,1024
z,x,m,y,3000,w,w,w,w,500,750,0,0,1113,1113,black,no,legacy,legacy,legacy,0,letters,uniform,,20,0,2,0,,12,,2,,12,,2,0,0,,12,0,,12,,2,,2,0,,2,,2,,2,,2,,2,,2,,2,,2,,2,Thu Sep 03 2020 08:32:07 GMT+0200 (Central European Summer Time),The main experiment item,yes,,/Users/ethan/Documents/GitHub/OpenSesame/MemorySpan,no,mono,no,18,no,white,no,no,768,legacy,legacy,zxmyenter,osweb,1.3.8,enter,space,,enter,1051,23219,,1051,2,legacy,1599114733911,1024,2,48000,-16,4,experiment,0,even,58175,28,58693,,64551,,52014,,52013,28,28,,64551,,65609,,65610,23256,,52014,,53291,,54575,,55859,,,,,,,MemorySpan_1,0,14474,13,yes,1024
t,q,t,f,3000,w,w,w,w,500,750,0,0,1214,1214,black,no,legacy,legacy,legacy,0,letters,uniform,,27,0,3,0,,17,,3,,17,,3,0,0,,17,0,,17,,3,,3,0,,3,,3,,3,,3,,3,,3,,3,,3,,3,Thu Sep 03 2020 08:32:07 GMT+0200 (Central European Summer Time),The main experiment item,yes,,/Users/ethan/Documents/GitHub/OpenSesame/MemorySpan,no,mono,no,18,no,white,no,no,768,legacy,legacy,tqtfenter,osweb,1.3.8,enter,space,,enter,2801,23219,,2801,2,legacy,1599114733911,1024,2,48000,-16,4,experiment,0,even,71793,28,72310,,79985,,65632,,65632,28,28,,79985,,82793,,82793,23256,,65632,,66909,,68193,,69476,,,,,,,MemorySpan_1,0,21844,18,yes,1024
d,y,v,f,3000,x,w,w,w,500,750,0,0,1198,1198,black,no,legacy,legacy,legacy,0,letters,uniform,,34,0,4,0,,23,,4,,23,,4,0,0,,23,0,,23,,4,,4,0,,4,,4,,4,,4,,4,,4,,4,,4,,4,Thu Sep 03 2020 08:32:07 GMT+0200 (Central European Summer Time),The main experiment item,yes,,/Users/ethan/Documents/GitHub/OpenSesame/MemorySpan,no,mono,no,18,no,white,no,no,768,legacy,legacy,dyvfxenter,osweb,1.3.8,enter,space,,enter,1556,23219,,1556,2,legacy,1599114733911,1024,2,48000,-16,5,experiment,0,even,89744,28,90262,,98720,,82817,,82817,28,28,,98720,,100277,,100278,23256,,82817,,84094,,85377,,86661,,87944,,,,,MemorySpan_1,0,28763,24,yes,1024
i,m,v,t,3000,k,w,w,w,500,750,0,0,1092,1092,black,no,legacy,legacy,legacy,0,letters,uniform,,41,0,5,0,,29,,5,,29,,5,0,0,,29,0,,29,,5,,5,0,,5,,5,,5,,5,,5,,5,,5,,5,,5,Thu Sep 03 2020 08:32:07 GMT+0200 (Central European Summer Time),The main experiment item,yes,,/Users/ethan/Documents/GitHub/OpenSesame/MemorySpan,no,mono,no,18,no,white,no,no,768,legacy,legacy,imvtkenter,osweb,1.3.8,enter,space,,enter,749,23219,,749,2,legacy,1599114733911,1024,2,48000,-16,5,experiment,0,even,107228,28,107730,,114086,,100299,,100298,28,28,,114086,,114846,,114846,23256,,100299,,101578,,102861,,104145,,105428,,,,,MemorySpan_1,0,32774,30,yes,1024
g,r,y,p,3000,y,r,w,w,500,750,0,0,1017,1017,black,no,legacy,legacy,legacy,0,letters,uniform,,48,0,6,0,,36,,6,,36,,6,0,0,,36,0,,36,,6,,6,0,,6,,6,,6,,6,,6,,6,,6,,6,,6,Thu Sep 03 2020 08:32:07 GMT+0200 (Central European Summer Time),The main experiment item,yes,,/Users/ethan/Documents/GitHub/OpenSesame/MemorySpan,no,mono,no,18,no,white,no,no,768,legacy,legacy,grypyrenter,osweb,1.3.8,enter,space,,enter,720,23219,,720,2,legacy,1599114733911,1024,2,48000,-16,6,experiment,0,even,122563,28,123080,,130339,,114870,,114869,28,28,,130339,,131063,,131064,23256,,114870,,116146,,117429,,118713,,119997,,121280,,,MemorySpan_1,0,37635,37,yes,1024
i,m,u,u,3000,e,r,w,w,500,750,0,0,927,927,black,no,legacy,legacy,legacy,0,letters,uniform,,55,0,7,0,,43,,7,,43,,7,0,0,,43,0,,43,,7,,7,0,,7,,7,,7,,7,,7,,7,,7,,7,,7,Thu Sep 03 2020 08:32:07 GMT+0200 (Central European Summer Time),The main experiment item,yes,,/Users/ethan/Documents/GitHub/OpenSesame/MemorySpan,no,mono,no,18,no,white,no,no,768,legacy,legacy,imuuerenter,osweb,1.3.8,enter,space,,enter,753,23219,,753,2,legacy,1599114733911,1024,2,48000,-16,6,experiment,0,even,138781,28,139298,,144807,,131089,,131088,28,28,,144807,,145564,,145565,23256,,131089,,132364,,133647,,134931,,136214,,137497,,,MemorySpan_1,0,40777,44,yes,1024
v,e,z,g,3000,s,q,l,w,500,750,0,0,984,984,black,no,legacy,legacy,legacy,0,letters,uniform,,62,0,8,0,,50,,8,,50,,8,0,0,,50,0,,50,,8,,8,0,,8,,8,,8,,8,,8,,8,,8,,8,,8,Thu Sep 03 2020 08:32:07 GMT+0200 (Central European Summer Time),The main experiment item,yes,,/Users/ethan/Documents/GitHub/OpenSesame/MemorySpan,no,mono,no,18,no,white,no,no,768,legacy,legacy,vegsqlenter,osweb,1.3.8,enter,space,,enter,626,23219,,626,2,legacy,1599114733911,1024,2,48000,-16,7,experiment,0,even,154048,28,154566,,166474,,145587,,145586,28,28,,166474,,167115,,167118,23256,,145587,,146865,,148148,,149432,,150715,,151999,,153282,MemorySpan_1,0,50179,51,yes,1024
u,p,t,x,3000,i,p,f,w,500,750,0,0,978,978,black,no,legacy,legacy,legacy,0,letters,uniform,,69,0,9,0,,57,,9,,57,,9,0,0,,57,0,,57,,9,,9,0,,9,,9,,9,,9,,9,,9,,9,,9,,9,Thu Sep 03 2020 08:32:07 GMT+0200 (Central European Summer Time),The main experiment item,yes,,/Users/ethan/Documents/GitHub/OpenSesame/MemorySpan,no,mono,no,18,no,white,no,no,768,legacy,legacy,iptxpfenter,osweb,1.3.8,enter,space,,enter,518,23219,,518,2,legacy,1599114733911,1024,2,48000,-16,7,experiment,0,even,175600,28,176117,,185241,,167139,,167138,28,28,,185241,,185767,,185767,23256,,167139,,168416,,169700,,170983,,172266,,173550,,174834,MemorySpan_1,0,56701,58,yes,1024
3,9,5,w,3000,w,w,w,w,500,750,0,0,1226,1226,black,no,legacy,legacy,legacy,0,numbers,uniform,,76,0,10,0,3,57,0,9,3,57,0,9,0,0,3,57,0,3,57,0,9,0,9,0,0,9,0,9,0,9,0,9,0,9,0,9,0,9,0,9,0,9,Thu Sep 03 2020 08:32:07 GMT+0200 (Central European Summer Time),The main experiment item,yes,,/Users/ethan/Documents/GitHub/OpenSesame/MemorySpan,no,mono,no,18,no,white,no,no,768,legacy,legacy,395enter,osweb,1.3.8,enter,space,enter,enter,276,23219,276,518,2,legacy,1599114733911,1024,2,48000,-16,3,experiment,0,even,191167,28,191686,213794,185241,185790,167139,185789,167138,28,28,213794,185241,214086,185767,214086,185767,23256,185790,167139,187067,168416,188350,169700,,170983,,172266,,173550,,174834,MemorySpan_1,0,76001,62,yes,1024
1,8,3,w,3000,w,w,w,w,500,750,0,0,1184,1184,black,no,legacy,legacy,legacy,0,numbers,uniform,,83,0,11,0,7,57,1,9,7,57,1,9,0,0,7,57,0,7,57,1,9,1,9,0,1,9,1,9,1,9,1,9,1,9,1,9,1,9,1,9,1,9,Thu Sep 03 2020 08:32:07 GMT+0200 (Central European Summer Time),The main experiment item,yes,,/Users/ethan/Documents/GitHub/OpenSesame/MemorySpan,no,mono,no,18,no,white,no,no,768,legacy,legacy,183enter,osweb,1.3.8,enter,space,enter,enter,547,23219,547,518,2,legacy,1599114733911,1024,2,48000,-16,3,experiment,0,even,219469,28,219987,224678,185241,214110,167139,214109,167138,28,28,224678,185241,225236,185767,225237,185767,23256,214110,167139,215386,168416,216653,169700,,170983,,172266,,173550,,174834,MemorySpan_1,0,78152,66,yes,1024
6,5,5,4,3000,w,w,w,w,500,750,0,0,1132,1132,black,no,legacy,legacy,legacy,0,numbers,uniform,,90,0,12,0,12,57,2,9,12,57,2,9,0,0,12,57,0,12,57,2,9,2,9,0,2,9,2,9,2,9,2,9,2,9,2,9,2,9,2,9,2,9,Thu Sep 03 2020 08:32:07 GMT+0200 (Central European Summer Time),The main experiment item,yes,,/Users/ethan/Documents/GitHub/OpenSesame/MemorySpan,no,mono,no,18,no,white,no,no,768,legacy,legacy,6554enter,osweb,1.3.8,enter,space,enter,enter,400,23219,400,518,2,legacy,1599114733911,1024,2,48000,-16,4,experiment,0,even,231420,28,231938,236878,185241,225259,167139,225258,167138,28,28,236878,185241,237287,185767,237287,185767,23256,225259,167139,226537,168416,227821,169700,229104,170983,,172266,,173550,,174834,MemorySpan_1,0,80392,71,yes,1024
5,5,5,1,3000,w,w,w,w,500,750,0,0,1087,1087,black,no,legacy,legacy,legacy,0,numbers,uniform,,97,0,13,0,17,57,3,9,17,57,3,9,0,0,17,57,0,17,57,3,9,3,9,0,3,9,3,9,3,9,3,9,3,9,3,9,3,9,3,9,3,9,Thu Sep 03 2020 08:32:07 GMT+0200 (Central European Summer Time),The main experiment item,yes,,/Users/ethan/Documents/GitHub/OpenSesame/MemorySpan,no,mono,no,18,no,white,no,no,768,legacy,legacy,5551enter,osweb,1.3.8,enter,space,enter,enter,540,23219,540,518,2,legacy,1599114733911,1024,2,48000,-16,4,experiment,0,even,243472,28,243989,248746,185241,237309,167139,237309,167138,28,28,248746,185241,249287,185767,249288,185767,23256,237309,167139,238588,168416,239871,169700,241154,170983,,172266,,173550,,174834,MemorySpan_1,0,82599,76,yes,1024
5,2,4,1,3000,2,w,w,w,500,750,0,0,1053,1053,black,no,legacy,legacy,legacy,0,numbers,uniform,,104,0,14,0,23,57,4,9,23,57,4,9,0,0,23,57,0,23,57,4,9,4,9,0,4,9,4,9,4,9,4,9,4,9,4,9,4,9,4,9,4,9,Thu Sep 03 2020 08:32:07 GMT+0200 (Central European Summer Time),The main experiment item,yes,,/Users/ethan/Documents/GitHub/OpenSesame/MemorySpan,no,mono,no,18,no,white,no,no,768,legacy,legacy,52412enter,osweb,1.3.8,enter,space,enter,enter,804,23219,804,518,2,legacy,1599114733911,1024,2,48000,-16,5,experiment,0,even,256239,28,256760,262797,185241,249309,167139,249309,167138,28,28,262798,185241,263605,185767,263606,185767,23256,249309,167139,250588,168416,251872,169700,253155,170983,254439,172266,,173550,,174834,MemorySpan_1,0,86327,82,yes,1024
2,9,6,4,3000,6,w,w,w,500,750,0,0,1049,1049,black,no,legacy,legacy,legacy,0,numbers,uniform,,111,0,15,0,29,57,5,9,29,57,5,9,0,0,29,57,0,29,57,5,9,5,9,0,5,9,5,9,5,9,5,9,5,9,5,9,5,9,5,9,5,9,Thu Sep 03 2020 08:32:07 GMT+0200 (Central European Summer Time),The main experiment item,yes,,/Users/ethan/Documents/GitHub/OpenSesame/MemorySpan,no,mono,no,18,no,white,no,no,768,legacy,legacy,29646enter,osweb,1.3.8,enter,space,enter,enter,1330,23219,1330,518,2,legacy,1599114733911,1024,2,48000,-16,5,experiment,0,even,270557,28,271073,278881,185241,263627,167139,263626,167138,28,28,278881,185241,280223,185767,280224,185767,23256,263627,167139,264906,168416,266190,169700,267473,170983,268757,172266,,173550,,174834,MemorySpan_1,0,92338,88,yes,1024
4,3,3,6,3000,4,5,w,w,500,750,0,0,1068,1068,black,no,legacy,legacy,legacy,0,numbers,uniform,,118,0,16,0,36,57,6,9,36,57,6,9,0,0,36,57,0,36,57,6,9,6,9,0,6,9,6,9,6,9,6,9,6,9,6,9,6,9,6,9,6,9,Thu Sep 03 2020 08:32:07 GMT+0200 (Central European Summer Time),The main experiment item,yes,,/Users/ethan/Documents/GitHub/OpenSesame/MemorySpan,no,mono,no,18,no,white,no,no,768,legacy,legacy,433645enter,osweb,1.3.8,enter,space,enter,enter,3838,23219,3838,518,2,legacy,1599114733911,1024,2,48000,-16,6,experiment,0,even,287925,28,288444,296833,185241,280245,167139,280245,167138,28,28,296833,185241,300675,185767,300676,185767,23256,280245,167139,281524,168416,282807,169700,284091,170983,285374,172266,286641,173550,,174834,MemorySpan_1,0,101419,95,yes,1024
3,1,8,4,3000,4,4,w,w,500,750,0,0,1027,1027,black,no,legacy,legacy,legacy,0,numbers,uniform,,125,0,17,0,43,57,7,9,43,57,7,9,0,0,43,57,0,43,57,7,9,7,9,0,7,9,7,9,7,9,7,9,7,9,7,9,7,9,7,9,7,9,Thu Sep 03 2020 08:32:07 GMT+0200 (Central European Summer Time),The main experiment item,yes,,/Users/ethan/Documents/GitHub/OpenSesame/MemorySpan,no,mono,no,18,no,white,no,no,768,legacy,legacy,618444enter,osweb,1.3.8,enter,space,enter,enter,557,23219,557,518,2,legacy,1599114733911,1024,2,48000,-16,6,experiment,0,even,308392,28,308909,314816,185241,300695,167139,300694,167138,28,28,314816,185241,315376,185767,315377,185767,23256,300695,167139,301975,168416,303259,169700,304542,170983,305825,172266,307109,173550,,174834,MemorySpan_1,0,104781,102,yes,1024
6,3,9,9,3000,6,5,4,w,500,750,0,0,1075,1075,black,no,legacy,legacy,legacy,0,numbers,uniform,,132,0,18,0,51,57,8,9,51,57,8,9,0,0,51,57,0,51,57,8,9,8,9,0,8,9,8,9,8,9,8,9,8,9,8,9,8,9,8,9,8,9,Thu Sep 03 2020 08:32:07 GMT+0200 (Central European Summer Time),The main experiment item,yes,,/Users/ethan/Documents/GitHub/OpenSesame/MemorySpan,no,mono,no,18,no,white,no,no,768,legacy,legacy,6399645enter,osweb,1.3.8,enter,space,enter,enter,234,23219,234,518,2,legacy,1599114733911,1024,2,48000,-16,7,experiment,0,even,323860,28,324379,340769,185241,315397,167139,315397,167138,28,28,340769,185241,341011,185767,341012,185767,23256,315397,167139,316676,168416,317961,169700,319244,170983,320527,172266,321810,173550,323094,174834,MemorySpan_1,0,118262,110,yes,1024
9,6,1,8,3000,5,3,4,w,500,750,0,0,1051,1051,black,no,legacy,legacy,legacy,0,numbers,uniform,,139,0,19,0,59,57,9,9,59,57,9,9,0,0,59,57,0,59,57,9,9,9,9,0,9,9,9,9,9,9,9,9,9,9,9,9,9,9,9,9,9,9,Thu Sep 03 2020 08:32:07 GMT+0200 (Central European Summer Time),The main experiment item,yes,,/Users/ethan/Documents/GitHub/OpenSesame/MemorySpan,no,mono,no,18,no,white,no,no,768,legacy,legacy,9618534enter,osweb,1.3.8,enter,space,enter,enter,842,23219,842,518,2,legacy,1599114733911,1024,2,48000,-16,7,experiment,0,even,349495,28,350014,358037,185241,341033,167139,341033,167138,28,28,358037,185241,358895,185767,358896,185767,23256,341033,167139,342312,168416,343595,169700,344878,170983,346162,172266,347445,173550,348728,174834,MemorySpan_1,0,123977,118,yes,1024
v,j,y,w,3000,w,w,w,w,500,750,0,0,797,797,black,no,legacy,legacy,legacy,0,letters,uniform,,6,0,0,0,,3,,0,,3,,0,0,0,,3,0,,3,,0,,0,0,,0,,0,,0,,0,,0,,0,,0,,0,,0,Thu Sep 03 2020 08:31:56 GMT+0200 (Central European Summer Time),The main experiment item,yes,,/Users/ethan/Documents/GitHub/OpenSesame/MemorySpan,no,mono,no,18,no,white,no,no,768,legacy,legacy,vjyenter,osweb,1.3.8,enter,b,,enter,407,3228,,407,2,legacy,1599114730058,1024,2,48000,-16,3,experiment,1,odd,8634,61,9145,,14966,,3322,,3322,61,61,,14966,,15377,,15378,3290,,3322,,4586,,5849,,,,,,,,,MemorySpan_1,0,3187,4,yes,1024
z,v,y,w,3000,w,w,w,w,500,750,0,0,601,601,black,no,legacy,legacy,legacy,0,letters,uniform,,13,0,1,0,,7,,1,,7,,1,0,0,,7,0,,7,,1,,1,0,,1,,1,,1,,1,,1,,1,,1,,1,,1,Thu Sep 03 2020 08:31:56 GMT+0200 (Central European Summer Time),The main experiment item,yes,,/Users/ethan/Documents/GitHub/OpenSesame/MemorySpan,no,mono,no,18,no,white,no,no,768,legacy,legacy,zvyenter,osweb,1.3.8,enter,b,,enter,392,3228,,392,2,legacy,1599114730058,1024,2,48000,-16,3,experiment,1,odd,20710,61,21218,,25486,,15400,,15399,61,61,,25486,,25884,,25884,3290,,15399,,16662,,17926,,,,,,,,,MemorySpan_1,0,4805,8,yes,1024
z,x,m,y,3000,w,w,w,w,500,750,0,0,592,592,black,no,legacy,legacy,legacy,0,letters,uniform,,20,0,2,0,,11,,2,,11,,2,0,0,,11,0,,11,,2,,2,0,,2,,2,,2,,2,,2,,2,,2,,2,,2,Thu Sep 03 2020 08:31:56 GMT+0200 (Central European Summer Time),The main experiment item,yes,,/Users/ethan/Documents/GitHub/OpenSesame/MemorySpan,no,mono,no,18,no,white,no,no,768,legacy,legacy,xmyenter,osweb,1.3.8,enter,b,,enter,302,3228,,302,2,legacy,1599114730058,1024,2,48000,-16,4,experiment,1,odd,31967,61,32475,,37513,,25902,,25902,61,61,,37514,,37821,,37822,3290,,25902,,27162,,28426,,29690,,,,,,,MemorySpan_1,0,7107,12,yes,1024
t,q,t,f,3000,w,w,w,w,500,750,0,0,555,555,black,no,legacy,legacy,legacy,0,letters,uniform,,27,0,3,0,,16,,3,,16,,3,0,0,,16,0,,16,,3,,3,0,,3,,3,,3,,3,,3,,3,,3,,3,,3,Thu Sep 03 2020 08:31:56 GMT+0200 (Central European Summer Time),The main experiment item,yes,,/Users/ethan/Documents/GitHub/OpenSesame/MemorySpan,no,mono,no,18,no,white,no,no,768,legacy,legacy,tqtfenter,osweb,1.3.8,enter,b,,enter,511,3228,,511,2,legacy,1599114730058,1024,2,48000,-16,4,experiment,1,odd,43912,61,44419,,49291,,37845,,37844,61,61,,49291,,49808,,49808,3290,,37845,,39106,,40370,,41634,,,,,,,MemorySpan_1,0,9440,17,yes,1024
d,y,v,f,3000,x,w,w,w,500,750,0,0,529,529,black,no,legacy,legacy,legacy,0,letters,uniform,,34,0,4,0,,22,,4,,22,,4,0,0,,22,0,,22,,4,,4,0,,4,,4,,4,,4,,4,,4,,4,,4,,4,Thu Sep 03 2020 08:31:56 GMT+0200 (Central European Summer Time),The main experiment item,yes,,/Users/ethan/Documents/GitHub/OpenSesame/MemorySpan,no,mono,no,18,no,white,no,no,768,legacy,legacy,dyvfxenter,osweb,1.3.8,enter,b,,enter,687,3228,,687,2,legacy,1599114730058,1024,2,48000,-16,5,experiment,1,odd,56648,61,57156,,62251,,49825,,49824,61,61,,62251,,62939,,62940,3290,,49825,,51086,,52350,,53613,,54878,,,,,MemorySpan_1,0,12172,23,yes,1024
i,m,v,t,3000,k,w,w,w,500,750,0,0,525,525,black,no,legacy,legacy,legacy,0,letters,uniform,,41,0,5,0,,28,,5,,28,,5,0,0,,28,0,,28,,5,,5,0,,5,,5,,5,,5,,5,,5,,5,,5,,5,Thu Sep 03 2020 08:31:56 GMT+0200 (Central European Summer Time),The main experiment item,yes,,/Users/ethan/Documents/GitHub/OpenSesame/MemorySpan,no,mono,no,18,no,white,no,no,768,legacy,legacy,imvtkenter,osweb,1.3.8,enter,b,,enter,632,3228,,632,2,legacy,1599114730058,1024,2,48000,-16,5,experiment,1,odd,69780,61,70288,,75763,,62959,,62959,61,61,,75763,,76398,,76399,3290,,62959,,64218,,65482,,66746,,68009,,,,,MemorySpan_1,0,15230,29,yes,1024
g,r,y,p,3000,y,r,w,w,500,750,0,0,492,492,black,no,legacy,legacy,legacy,0,letters,uniform,,48,0,6,0,,35,,6,,35,,6,0,0,,35,0,,35,,6,,6,0,,6,,6,,6,,6,,6,,6,,6,,6,,6,Thu Sep 03 2020 08:31:56 GMT+0200 (Central European Summer Time),The main experiment item,yes,,/Users/ethan/Documents/GitHub/OpenSesame/MemorySpan,no,mono,no,18,no,white,no,no,768,legacy,legacy,grypyrenter,osweb,1.3.8,enter,b,,enter,359,3228,,359,2,legacy,1599114730058,1024,2,48000,-16,6,experiment,1,odd,83996,61,84503,,89666,,76415,,76415,61,61,,89666,,90030,,90031,3290,,76415,,77676,,78940,,80204,,81468,,82732,,,MemorySpan_1,0,17696,36,yes,1024
