A,B,C,D,DotDur,E,F,G,H,ISIdur,NumDur,acc,accuracy,average_response_time,avg_rt,background,bidi,canvas_backend,clock_backend,color_backend,compensation,condition,coordinates,correct,count_ISI,count_digit_loop_1,count_dot,count_experiment,count_get_input_digits,count_get_input_letters,count_get_input_loop_1,count_get_input_loop_2,count_get_input_sequence_1,count_get_input_sequence_2,count_init_1,count_init_2,count_intro_1,count_letter_loop_1,count_number_input_1,count_number_input_2,count_osweb,count_process_input_1,count_process_input_2,count_report_1,count_report_2,count_response_logger_1,count_response_logger_2,count_set_time_vars,count_stimA_1,count_stimA_2,count_stimB_1,count_stimB_2,count_stimC_1,count_stimC_2,count_stimD_1,count_stimD_2,count_stimE_1,count_stimE_2,count_stimF_1,count_stimF_2,count_stimG_1,count_stimG_2,count_stimH_1,count_stimH_2,count_trial_sequence_1,count_trial_sequence_2,datetime,description,disable_garbage_collection,empty_column,experiment_path,font_bold,font_family,font_italic,font_size,font_underline,foreground,form_clicks,fullscreen,height,keyboard_backend,mouse_backend,multichar_response,opensesame_codename,opensesame_version,response,response_intro_1,response_number_input_1,response_number_input_2,response_time,response_time_intro_1,response_time_number_input_1,response_time_number_input_2,round_decimals,sampler_backend,sessionid,sound_buf_size,sound_channels,sound_freq,sound_sample_size,span,start,subject_nr,subject_parity,time_ISI,time_digit_loop_1,time_dot,time_get_input_digits,time_get_input_letters,time_get_input_loop_1,time_get_input_loop_2,time_init_1,time_init_2,time_intro_1,time_letter_loop_1,time_number_input_1,time_number_input_2,time_process_input_1,time_process_input_2,time_response_logger_1,time_response_logger_2,time_set_time_vars,time_stimA_1,time_stimA_2,time_stimB_1,time_stimB_2,time_stimC_1,time_stimC_2,time_stimD_1,time_stimD_2,time_stimE_1,time_stimE_2,time_stimF_1,time_stimF_2,time_stimG_1,time_stimG_2,title,total_correct,total_response_time,total_responses,uniform_coordinates,width
v,j,y,w,3000,w,w,w,w,500,750,0,0,506,506,black,no,legacy,legacy,legacy,0,letters,uniform,,6,0,0,0,,3,,0,,3,,0,0,0,,3,0,,3,,0,,0,0,,0,,0,,0,,0,,0,,0,,0,,0,,0,Thu Sep 03 2020 10:27:21 GMT+0200 (Centraleuropæisk sommertid),The main experiment item,yes,,/Users/ethan/Documents/GitHub/OpenSesame/MemorySpan,no,mono,no,18,no,white,no,no,768,legacy,legacy,vjyenter,osweb,1.3.8,enter,space,,enter,466,8496,,466,2,legacy,1599121707719,1024,2,48000,-16,3,experiment,0,even,83507,69609,84012,,88639,,78134,,78133,69609,69609,,88639,,89118,,89118,78110,,78134,,79409,,80692,,,,,,,,,MemorySpan_1,0,2025,4,yes,1024
z,v,y,w,3000,w,w,w,w,500,750,0,0,514,514,black,no,legacy,legacy,legacy,0,letters,uniform,,13,0,1,0,,7,,1,,7,,1,0,0,,7,0,,7,,1,,1,0,,1,,1,,1,,1,,1,,1,,1,,1,,1,Thu Sep 03 2020 10:27:21 GMT+0200 (Centraleuropæisk sommertid),The main experiment item,yes,,/Users/ethan/Documents/GitHub/OpenSesame/MemorySpan,no,mono,no,18,no,white,no,no,768,legacy,legacy,zvyenter,osweb,1.3.8,enter,space,,enter,748,8496,,748,2,legacy,1599121707719,1024,2,48000,-16,3,experiment,0,even,94497,69609,95013,,99413,,89137,,89137,69609,69609,,99413,,100178,,100178,78110,,89137,,90417,,91682,,,,,,,,,MemorySpan_1,0,4109,8,yes,1024
z,x,m,y,3000,w,w,w,w,500,750,0,0,470,470,black,no,legacy,legacy,legacy,0,letters,uniform,,20,0,2,0,,12,,2,,12,,2,0,0,,12,0,,12,,2,,2,0,,2,,2,,2,,2,,2,,2,,2,,2,,2,Thu Sep 03 2020 10:27:21 GMT+0200 (Centraleuropæisk sommertid),The main experiment item,yes,,/Users/ethan/Documents/GitHub/OpenSesame/MemorySpan,no,mono,no,18,no,white,no,no,768,legacy,legacy,zxmyenter,osweb,1.3.8,enter,space,,enter,333,8496,,333,2,legacy,1599121707719,1024,2,48000,-16,4,experiment,0,even,106306,69609,106820,,111569,,100194,,100194,69609,69609,,111569,,111914,,111915,78110,,100194,,101474,,102743,,104009,,,,,,,MemorySpan_1,0,6113,13,yes,1024
t,q,t,f,3000,w,w,w,w,500,750,0,0,473,473,black,no,legacy,legacy,legacy,0,letters,uniform,,27,0,3,0,,17,,3,,17,,3,0,0,,17,0,,17,,3,,3,0,,3,,3,,3,,3,,3,,3,,3,,3,,3,Thu Sep 03 2020 10:27:21 GMT+0200 (Centraleuropæisk sommertid),The main experiment item,yes,,/Users/ethan/Documents/GitHub/OpenSesame/MemorySpan,no,mono,no,18,no,white,no,no,768,legacy,legacy,tqtfenter,osweb,1.3.8,enter,space,,enter,503,8496,,503,2,legacy,1599121707719,1024,2,48000,-16,4,experiment,0,even,118076,69609,118592,,123562,,111931,,111931,69609,69609,,123562,,124070,,124071,78110,,111931,,113200,,114479,,115762,,,,,,,MemorySpan_1,0,8512,18,yes,1024
d,y,v,f,3000,x,w,w,w,500,750,0,0,468,468,black,no,legacy,legacy,legacy,0,letters,uniform,,34,0,4,0,,23,,4,,23,,4,0,0,,23,0,,23,,4,,4,0,,4,,4,,4,,4,,4,,4,,4,,4,,4,Thu Sep 03 2020 10:27:21 GMT+0200 (Centraleuropæisk sommertid),The main experiment item,yes,,/Users/ethan/Documents/GitHub/OpenSesame/MemorySpan,no,mono,no,18,no,white,no,no,768,legacy,legacy,dyvfxenter,osweb,1.3.8,enter,space,,enter,724,8496,,724,2,legacy,1599121707719,1024,2,48000,-16,5,experiment,0,even,131002,69609,131514,,136584,,124086,,124086,69609,69609,,136584,,137309,,137310,78110,,124086,,125353,,126635,,127918,,129200,,,,,MemorySpan_1,0,11234,24,yes,1024
i,m,v,t,3000,k,w,w,w,500,750,0,0,484,484,black,no,legacy,legacy,legacy,0,letters,uniform,,41,0,5,0,,29,,5,,29,,5,0,0,,29,0,,29,,5,,5,0,,5,,5,,5,,5,,5,,5,,5,,5,,5,Thu Sep 03 2020 10:27:21 GMT+0200 (Centraleuropæisk sommertid),The main experiment item,yes,,/Users/ethan/Documents/GitHub/OpenSesame/MemorySpan,no,mono,no,18,no,white,no,no,768,legacy,legacy,imvtkenter,osweb,1.3.8,enter,space,,enter,1809,8496,,1809,2,legacy,1599121707719,1024,2,48000,-16,5,experiment,0,even,144219,69609,144736,,149306,,137326,,137326,69609,69609,,149306,,151129,,151130,78110,,137326,,138593,,139859,,141138,,142421,,,,,MemorySpan_1,0,14520,30,yes,1024
g,r,y,p,3000,y,r,w,w,500,750,0,0,474,474,black,no,legacy,legacy,legacy,0,letters,uniform,,48,0,6,0,,36,,6,,36,,6,0,0,,36,0,,36,,6,,6,0,,6,,6,,6,,6,,6,,6,,6,,6,,6,Thu Sep 03 2020 10:27:21 GMT+0200 (Centraleuropæisk sommertid),The main experiment item,yes,,/Users/ethan/Documents/GitHub/OpenSesame/MemorySpan,no,mono,no,18,no,white,no,no,768,legacy,legacy,grypyrenter,osweb,1.3.8,enter,space,,enter,544,8496,,544,2,legacy,1599121707719,1024,2,48000,-16,6,experiment,0,even,158825,69609,159340,,164907,,151149,,151149,69609,69609,,164907,,165452,,165452,78110,,151149,,152429,,153711,,154994,,156276,,157558,,,MemorySpan_1,0,17535,37,yes,1024
i,m,u,u,3000,e,r,w,w,500,750,0,0,481,481,black,no,legacy,legacy,legacy,0,letters,uniform,,55,0,7,0,,43,,7,,43,,7,0,0,,43,0,,43,,7,,7,0,,7,,7,,7,,7,,7,,7,,7,,7,,7,Thu Sep 03 2020 10:27:21 GMT+0200 (Centraleuropæisk sommertid),The main experiment item,yes,,/Users/ethan/Documents/GitHub/OpenSesame/MemorySpan,no,mono,no,18,no,white,no,no,768,legacy,legacy,imuuerenter,osweb,1.3.8,enter,space,,enter,1651,8496,,1651,2,legacy,1599121707719,1024,2,48000,-16,6,experiment,0,even,173127,69609,173644,,178729,,165469,,165469,69609,69609,,178729,,180387,,180388,78110,,165469,,166750,,168019,,169298,,170564,,171845,,,MemorySpan_1,0,21174,44,yes,1024
v,e,z,g,3000,s,q,l,w,500,750,0,0,573,573,black,no,legacy,legacy,legacy,0,letters,uniform,,62,0,8,0,,51,,8,,51,,8,0,0,,51,0,,51,,8,,8,0,,8,,8,,8,,8,,8,,8,,8,,8,,8,Thu Sep 03 2020 10:27:21 GMT+0200 (Centraleuropæisk sommertid),The main experiment item,yes,,/Users/ethan/Documents/GitHub/OpenSesame/MemorySpan,no,mono,no,18,no,white,no,no,768,legacy,legacy,vezgqurenter,osweb,1.3.8,enter,space,,enter,899,8496,,899,2,legacy,1599121707719,1024,2,48000,-16,7,experiment,0,even,188864,69609,189381,,200241,,180408,,180407,69609,69609,,200241,,201157,,201157,78110,,180408,,181686,,182969,,184251,,185533,,186816,,188098,MemorySpan_1,0,29821,52,yes,1024
u,p,t,x,3000,i,p,f,w,500,750,0,0,577,577,black,no,legacy,legacy,legacy,0,letters,uniform,,69,0,9,0,,58,,9,,58,,9,0,0,,58,0,,58,,9,,9,0,,9,,9,,9,,9,,9,,9,,9,,9,,9,Thu Sep 03 2020 10:27:21 GMT+0200 (Centraleuropæisk sommertid),The main experiment item,yes,,/Users/ethan/Documents/GitHub/OpenSesame/MemorySpan,no,mono,no,18,no,white,no,no,768,legacy,legacy,uptixrenter,osweb,1.3.8,enter,space,,enter,1346,8496,,1346,2,legacy,1599121707719,1024,2,48000,-16,7,experiment,0,even,209629,69609,210145,,216112,,201174,,201173,69609,69609,,216112,,217472,,217472,78110,,201174,,202452,,203734,,205016,,206298,,207580,,208863,MemorySpan_1,0,34035,59,yes,1024
3,9,5,w,3000,w,w,w,w,500,750,0,0,563,563,black,no,legacy,legacy,legacy,0,numbers,uniform,,76,0,10,0,3,58,0,9,3,58,0,9,0,0,3,58,0,3,58,0,9,0,9,0,0,9,0,9,0,9,0,9,0,9,0,9,0,9,0,9,0,9,Thu Sep 03 2020 10:27:21 GMT+0200 (Centraleuropæisk sommertid),The main experiment item,yes,,/Users/ethan/Documents/GitHub/OpenSesame/MemorySpan,no,mono,no,18,no,white,no,no,768,legacy,legacy,395enter,osweb,1.3.8,enter,space,enter,enter,539,8496,539,1346,2,legacy,1599121707719,1024,2,48000,-16,3,experiment,0,even,222884,69609,223405,227368,216112,217490,201174,217490,201173,69609,69609,227368,216112,227912,217472,227913,217472,78110,217490,201174,218771,202452,220054,203734,,205016,,206298,,207580,,208863,MemorySpan_1,0,35484,63,yes,1024
1,8,3,w,3000,w,w,w,w,500,750,0,0,526,526,black,no,legacy,legacy,legacy,0,numbers,uniform,,83,0,11,0,20,58,1,9,20,58,1,9,0,0,20,58,0,20,58,1,9,1,9,0,1,9,1,9,1,9,1,9,1,9,1,9,1,9,1,9,1,9,Thu Sep 03 2020 10:27:21 GMT+0200 (Centraleuropæisk sommertid),The main experiment item,yes,,/Users/ethan/Documents/GitHub/OpenSesame/MemorySpan,no,mono,no,18,no,white,no,no,768,legacy,legacy,183enter,osweb,1.3.8,enter,space,enter,enter,1117,8496,1117,1346,2,legacy,1599121707719,1024,2,48000,-16,3,experiment,0,even,233325,69609,233828,242456,216112,227932,201174,227931,201173,69609,69609,242456,216112,243585,217472,243585,217472,78110,227932,201174,229211,202452,230494,203734,,205016,,206298,,207580,,208863,MemorySpan_1,0,42044,80,yes,1024
6,5,5,4,3000,w,w,w,w,500,750,0,0,516,516,black,no,legacy,legacy,legacy,0,numbers,uniform,,90,0,12,0,25,58,2,9,25,58,2,9,0,0,25,58,0,25,58,2,9,2,9,0,2,9,2,9,2,9,2,9,2,9,2,9,2,9,2,9,2,9,Thu Sep 03 2020 10:27:21 GMT+0200 (Centraleuropæisk sommertid),The main experiment item,yes,,/Users/ethan/Documents/GitHub/OpenSesame/MemorySpan,no,mono,no,18,no,white,no,no,768,legacy,legacy,6554enter,osweb,1.3.8,enter,space,enter,enter,669,8496,669,1346,2,legacy,1599121707719,1024,2,48000,-16,4,experiment,0,even,249764,69609,250278,254478,216112,243604,201174,243603,201173,69609,69609,254478,216112,255156,217472,255156,217472,78110,243604,201174,244882,202452,246164,203734,247447,205016,,206298,,207580,,208863,MemorySpan_1,0,43840,85,yes,1024
5,5,5,1,3000,w,w,w,w,500,750,0,0,504,504,black,no,legacy,legacy,legacy,0,numbers,uniform,,97,0,13,0,30,58,3,9,30,58,3,9,0,0,30,58,0,30,58,3,9,3,9,0,3,9,3,9,3,9,3,9,3,9,3,9,3,9,3,9,3,9,Thu Sep 03 2020 10:27:21 GMT+0200 (Centraleuropæisk sommertid),The main experiment item,yes,,/Users/ethan/Documents/GitHub/OpenSesame/MemorySpan,no,mono,no,18,no,white,no,no,768,legacy,legacy,5551enter,osweb,1.3.8,enter,space,enter,enter,407,8496,407,1346,2,legacy,1599121707719,1024,2,48000,-16,4,experiment,0,even,261334,69609,261851,266034,216112,255174,201174,255173,201173,69609,69609,266034,216112,266449,217472,266450,217472,78110,255174,201174,256455,202452,257737,203734,259019,205016,,206298,,207580,,208863,MemorySpan_1,0,45351,90,yes,1024
5,2,4,1,3000,2,w,w,w,500,750,0,0,498,498,black,no,legacy,legacy,legacy,0,numbers,uniform,,104,0,14,0,36,58,4,9,36,58,4,9,0,0,36,58,0,36,58,4,9,4,9,0,4,9,4,9,4,9,4,9,4,9,4,9,4,9,4,9,4,9,Thu Sep 03 2020 10:27:21 GMT+0200 (Centraleuropæisk sommertid),The main experiment item,yes,,/Users/ethan/Documents/GitHub/OpenSesame/MemorySpan,no,mono,no,18,no,white,no,no,768,legacy,legacy,52412enter,osweb,1.3.8,enter,space,enter,enter,368,8496,368,1346,2,legacy,1599121707719,1024,2,48000,-16,5,experiment,0,even,273373,69609,273892,279089,216112,266469,201174,266469,201173,69609,69609,279089,216112,279467,217472,279468,217472,78110,266469,201174,267745,202452,269027,203734,270309,205016,271577,206298,,207580,,208863,MemorySpan_1,0,47821,96,yes,1024
2,9,6,4,3000,6,w,w,w,500,750,0,0,495,495,black,no,legacy,legacy,legacy,0,numbers,uniform,,111,0,15,0,42,58,5,9,42,58,5,9,0,0,42,58,0,42,58,5,9,5,9,0,5,9,5,9,5,9,5,9,5,9,5,9,5,9,5,9,5,9,Thu Sep 03 2020 10:27:21 GMT+0200 (Centraleuropæisk sommertid),The main experiment item,yes,,/Users/ethan/Documents/GitHub/OpenSesame/MemorySpan,no,mono,no,18,no,white,no,no,768,legacy,legacy,29646enter,osweb,1.3.8,enter,space,enter,enter,607,8496,607,1346,2,legacy,1599121707719,1024,2,48000,-16,5,experiment,0,even,286395,69609,286915,291995,216112,279486,201174,279485,201173,69609,69609,291995,216112,292609,217472,292610,217472,78110,279486,201174,280752,202452,282032,203734,283314,205016,284597,206298,,207580,,208863,MemorySpan_1,0,50443,102,yes,1024
4,3,3,6,3000,4,5,w,w,500,750,0,0,485,485,black,no,legacy,legacy,legacy,0,numbers,uniform,,118,0,16,0,49,58,6,9,49,58,6,9,0,0,49,58,0,49,58,6,9,6,9,0,6,9,6,9,6,9,6,9,6,9,6,9,6,9,6,9,6,9,Thu Sep 03 2020 10:27:21 GMT+0200 (Centraleuropæisk sommertid),The main experiment item,yes,,/Users/ethan/Documents/GitHub/OpenSesame/MemorySpan,no,mono,no,18,no,white,no,no,768,legacy,legacy,433646enter,osweb,1.3.8,enter,space,enter,enter,646,8496,646,1346,2,legacy,1599121707719,1024,2,48000,-16,6,experiment,0,even,300301,69609,300817,305653,216112,292627,201174,292627,201173,69609,69609,305653,216112,306311,217472,306311,217472,78110,292627,201174,293906,202452,295187,203734,296458,205016,297739,206298,299021,207580,,208863,MemorySpan_1,0,52834,109,yes,1024
3,1,8,4,3000,4,4,w,w,500,750,0,0,477,477,black,no,legacy,legacy,legacy,0,numbers,uniform,,125,0,17,0,56,58,7,9,56,58,7,9,0,0,56,58,0,56,58,7,9,7,9,0,7,9,7,9,7,9,7,9,7,9,7,9,7,9,7,9,7,9,Thu Sep 03 2020 10:27:21 GMT+0200 (Centraleuropæisk sommertid),The main experiment item,yes,,/Users/ethan/Documents/GitHub/OpenSesame/MemorySpan,no,mono,no,18,no,white,no,no,768,legacy,legacy,318444enter,osweb,1.3.8,enter,space,enter,enter,548,8496,548,1346,2,legacy,1599121707719,1024,2,48000,-16,6,experiment,0,even,313988,69609,314509,319543,216112,306329,201174,306329,201173,69609,69609,319543,216112,320099,217472,320100,217472,78110,306329,201174,307596,202452,308863,203734,310142,205016,311423,206298,312707,207580,,208863,MemorySpan_1,0,55325,116,yes,1024
6,3,9,9,3000,6,5,4,w,500,750,0,0,540,540,black,no,legacy,legacy,legacy,0,numbers,uniform,,132,0,18,0,64,58,8,9,64,58,8,9,0,0,64,58,0,64,58,8,9,8,9,0,8,9,8,9,8,9,8,9,8,9,8,9,8,9,8,9,8,9,Thu Sep 03 2020 10:27:21 GMT+0200 (Centraleuropæisk sommertid),The main experiment item,yes,,/Users/ethan/Documents/GitHub/OpenSesame/MemorySpan,no,mono,no,18,no,white,no,no,768,legacy,legacy,6399654enter,osweb,1.3.8,enter,space,enter,enter,5801,8496,5801,1346,2,legacy,1599121707719,1024,2,48000,-16,7,experiment,0,even,328558,69609,329076,338004,216112,320120,201174,320120,201173,69609,69609,338004,216112,343812,217472,343813,217472,78110,320120,201174,321385,202452,322667,203734,323946,205016,325228,206298,326510,207580,327796,208863,MemorySpan_1,0,66937,124,yes,1024
9,6,1,8,3000,5,3,4,w,500,750,0,0,531,531,black,no,legacy,legacy,legacy,0,numbers,uniform,,139,0,19,0,73,58,9,9,73,58,9,9,0,0,73,58,0,73,58,9,9,9,9,0,9,9,9,9,9,9,9,9,9,9,9,9,9,9,9,9,9,9,Thu Sep 03 2020 10:27:21 GMT+0200 (Centraleuropæisk sommertid),The main experiment item,yes,,/Users/ethan/Documents/GitHub/OpenSesame/MemorySpan,no,mono,no,18,no,white,no,no,768,legacy,legacy,961534enter,osweb,1.3.8,enter,space,enter,enter,295,8496,295,1346,2,legacy,1599121707719,1024,2,48000,-16,7,experiment,0,even,352238,69609,352755,359252,216112,343829,201174,343828,201173,69609,69609,359252,216112,359552,217472,359552,217472,78110,343829,201174,345111,202452,346394,203734,347659,205016,348927,206298,350207,207580,351472,208863,MemorySpan_1,0,70606,133,yes,1024
v,j,y,w,3000,w,w,w,w,500,750,0,0,476,476,black,no,legacy,legacy,legacy,0,letters,uniform,,6,0,0,0,,3,,0,,3,,0,0,0,,3,0,,3,,0,,0,0,,0,,0,,0,,0,,0,,0,,0,,0,,0,Thu Sep 03 2020 10:24:57 GMT+0200 (Centraleuropæisk sommertid),The main experiment item,yes,,/Users/ethan/Documents/GitHub/OpenSesame/MemorySpan,no,mono,no,18,no,white,no,no,768,legacy,legacy,vjyenter,osweb,1.3.8,enter,space,,enter,512,2735,,512,2,legacy,1599121559172,1024,2,48000,-16,3,experiment,1,odd,8198,40,8718,,13199,,2810,,2809,40,40,,13199,,13726,,13727,2785,,2810,,4084,,5366,,,,,,,,,MemorySpan_1,0,1905,4,yes,1024
z,v,y,w,3000,w,w,w,w,500,750,0,0,552,552,black,no,legacy,legacy,legacy,0,letters,uniform,,13,0,1,0,,7,,1,,7,,1,0,0,,7,0,,7,,1,,1,0,,1,,1,,1,,1,,1,,1,,1,,1,,1,Thu Sep 03 2020 10:24:57 GMT+0200 (Centraleuropæisk sommertid),The main experiment item,yes,,/Users/ethan/Documents/GitHub/OpenSesame/MemorySpan,no,mono,no,18,no,white,no,no,768,legacy,legacy,zvyenter,osweb,1.3.8,enter,space,,enter,575,2735,,575,2,legacy,1599121559172,1024,2,48000,-16,3,experiment,1,odd,19138,40,19644,,24640,,13749,,13748,40,40,,24640,,25216,,25217,2785,,13749,,15025,,16307,,,,,,,,,MemorySpan_1,0,4419,8,yes,1024
z,x,m,y,3000,w,w,w,w,500,750,0,0,517,517,black,no,legacy,legacy,legacy,0,letters,uniform,,20,0,2,0,,12,,2,,12,,2,0,0,,12,0,,12,,2,,2,0,,2,,2,,2,,2,,2,,2,,2,,2,,2,Thu Sep 03 2020 10:24:57 GMT+0200 (Centraleuropæisk sommertid),The main experiment item,yes,,/Users/ethan/Documents/GitHub/OpenSesame/MemorySpan,no,mono,no,18,no,white,no,no,768,legacy,legacy,zxmyenter,osweb,1.3.8,enter,space,,enter,592,2735,,592,2,legacy,1599121559172,1024,2,48000,-16,4,experiment,1,odd,31395,40,31912,,36679,,25236,,25235,40,40,,36679,,37273,,37273,2785,,25236,,26516,,27798,,29080,,,,,,,MemorySpan_1,0,6715,13,yes,1024
t,q,t,f,3000,w,w,w,w,500,750,0,0,529,529,black,no,legacy,legacy,legacy,0,letters,uniform,,27,0,3,0,,17,,3,,17,,3,0,0,,17,0,,17,,3,,3,0,,3,,3,,3,,3,,3,,3,,3,,3,,3,Thu Sep 03 2020 10:24:57 GMT+0200 (Centraleuropæisk sommertid),The main experiment item,yes,,/Users/ethan/Documents/GitHub/OpenSesame/MemorySpan,no,mono,no,18,no,white,no,no,768,legacy,legacy,tqtfenter,osweb,1.3.8,enter,space,,enter,995,2735,,995,2,legacy,1599121559172,1024,2,48000,-16,4,experiment,1,odd,43451,40,43968,,48852,,37296,,37295,40,40,,48852,,49863,,49863,2785,,37296,,38572,,39854,,41137,,,,,,,MemorySpan_1,0,9530,18,yes,1024
d,y,v,f,3000,x,w,w,w,500,750,0,0,618,618,black,no,legacy,legacy,legacy,0,letters,uniform,,34,0,4,0,,23,,4,,23,,4,0,0,,23,0,,23,,4,,4,0,,4,,4,,4,,4,,4,,4,,4,,4,,4,Thu Sep 03 2020 10:24:57 GMT+0200 (Centraleuropæisk sommertid),The main experiment item,yes,,/Users/ethan/Documents/GitHub/OpenSesame/MemorySpan,no,mono,no,18,no,white,no,no,768,legacy,legacy,dyvxfenter,osweb,1.3.8,enter,space,,enter,1799,2735,,1799,2,legacy,1599121559172,1024,2,48000,-16,5,experiment,1,odd,56807,40,57324,,63940,,49885,,49885,40,40,,63940,,65749,,65750,2785,,49885,,51162,,52444,,53727,,55009,,,,,MemorySpan_1,0,14840,24,yes,1024
i,m,v,t,3000,k,w,w,w,500,750,0,0,686,686,black,no,legacy,legacy,legacy,0,letters,uniform,,41,0,5,0,,29,,5,,29,,5,0,0,,29,0,,29,,5,,5,0,,5,,5,,5,,5,,5,,5,,5,,5,,5,Thu Sep 03 2020 10:24:57 GMT+0200 (Centraleuropæisk sommertid),The main experiment item,yes,,/Users/ethan/Documents/GitHub/OpenSesame/MemorySpan,no,mono,no,18,no,white,no,no,768,legacy,legacy,dvitmenter,osweb,1.3.8,enter,space,,enter,1425,2735,,1425,2,legacy,1599121559172,1024,2,48000,-16,5,experiment,1,odd,72694,40,73211,,80625,,65769,,65769,40,40,,80625,,82053,,82053,2785,,65769,,67049,,68331,,69613,,70896,,,,,MemorySpan_1,0,20584,30,yes,1024
g,r,y,p,3000,y,r,w,w,500,750,0,0,697,697,black,no,legacy,legacy,legacy,0,letters,uniform,,48,0,6,0,,36,,6,,36,,6,0,0,,36,0,,36,,6,,6,0,,6,,6,,6,,6,,6,,6,,6,,6,,6,Thu Sep 03 2020 10:24:57 GMT+0200 (Centraleuropæisk sommertid),The main experiment item,yes,,/Users/ethan/Documents/GitHub/OpenSesame/MemorySpan,no,mono,no,18,no,white,no,no,768,legacy,legacy,grypyrenter,osweb,1.3.8,enter,space,,enter,1650,2735,,1650,2,legacy,1599121559172,1024,2,48000,-16,6,experiment,1,odd,89764,40,90280,,96945,,82074,,82073,40,40,,96945,,98606,,98606,2785,,82074,,83352,,84634,,85917,,87199,,88481,,,MemorySpan_1,0,25791,37,yes,1024
i,m,u,u,3000,e,r,w,w,500,750,0,0,679,679,black,no,legacy,legacy,legacy,0,letters,uniform,,55,0,7,0,,43,,7,,43,,7,0,0,,43,0,,43,,7,,7,0,,7,,7,,7,,7,,7,,7,,7,,7,,7,Thu Sep 03 2020 10:24:57 GMT+0200 (Centraleuropæisk sommertid),The main experiment item,yes,,/Users/ethan/Documents/GitHub/OpenSesame/MemorySpan,no,mono,no,18,no,white,no,no,768,legacy,legacy,imuuerenter,osweb,1.3.8,enter,space,,enter,2098,2735,,2098,2,legacy,1599121559172,1024,2,48000,-16,6,experiment,1,odd,106316,40,106820,,111901,,98627,,98626,40,40,,111901,,114010,,114010,2785,,98627,,99905,,101188,,102470,,103752,,105034,,,MemorySpan_1,0,29880,44,yes,1024
v,e,z,g,3000,s,q,l,w,500,750,0,0,695,695,black,no,legacy,legacy,legacy,0,letters,uniform,,62,0,8,0,,52,,8,,52,,8,0,0,,52,0,,52,,8,,8,0,,8,,8,,8,,8,,8,,8,,8,,8,,8,Thu Sep 03 2020 10:24:57 GMT+0200 (Centraleuropæisk sommertid),The main experiment item,yes,,/Users/ethan/Documents/GitHub/OpenSesame/MemorySpan,no,mono,no,18,no,white,no,no,768,legacy,legacy,vezgrlenter,osweb,1.3.8,enter,space,,enter,738,2735,,738,2,legacy,1599121559172,1024,2,48000,-16,7,experiment,1,odd,122486,40,123003,,132351,,114033,,114032,40,40,,132351,,133094,,133095,2785,,114033,,115309,,116591,,117874,,119156,,120438,,121721,MemorySpan_1,0,36816,53,yes,1024
u,p,t,x,3000,i,p,f,w,500,750,0,0,715,715,black,no,legacy,legacy,legacy,0,letters,uniform,,69,0,9,0,,60,,9,,60,,9,0,0,,60,0,,60,,9,,9,0,,9,,9,,9,,9,,9,,9,,9,,9,,9,Thu Sep 03 2020 10:24:57 GMT+0200 (Centraleuropæisk sommertid),The main experiment item,yes,,/Users/ethan/Documents/GitHub/OpenSesame/MemorySpan,no,mono,no,18,no,white,no,no,768,legacy,legacy,uptixpfenter,osweb,1.3.8,enter,space,,enter,559,2735,,559,2,legacy,1599121559172,1024,2,48000,-16,7,experiment,1,odd,141571,40,142087,,151453,,133113,,133112,40,40,,151453,,152013,,152013,2785,,133113,,134393,,135676,,136958,,138240,,139523,,140805,MemorySpan_1,0,43634,61,yes,1024
3,9,5,w,3000,w,w,w,w,500,750,0,0,702,702,black,no,legacy,legacy,legacy,0,numbers,uniform,,76,0,10,0,3,60,0,9,3,60,0,9,0,0,3,60,0,3,60,0,9,0,9,0,0,9,0,9,0,9,0,9,0,9,0,9,0,9,0,9,0,9,Thu Sep 03 2020 10:24:57 GMT+0200 (Centraleuropæisk sommertid),The main experiment item,yes,,/Users/ethan/Documents/GitHub/OpenSesame/MemorySpan,no,mono,no,18,no,white,no,no,768,legacy,legacy,395enter,osweb,1.3.8,enter,space,enter,enter,874,2735,874,559,2,legacy,1599121559172,1024,2,48000,-16,3,experiment,1,odd,157424,40,157941,162143,151453,152041,133113,152040,133112,40,40,162143,151453,163019,152013,163020,152013,2785,152041,133113,153311,134393,154594,135676,,136958,,138240,,139523,,140805,MemorySpan_1,0,45650,65,yes,1024
1,8,3,w,3000,w,w,w,w,500,750,0,0,706,706,black,no,legacy,legacy,legacy,0,numbers,uniform,,83,0,11,0,7,60,1,9,7,60,1,9,0,0,7,60,0,7,60,1,9,1,9,0,1,9,1,9,1,9,1,9,1,9,1,9,1,9,1,9,1,9,Thu Sep 03 2020 10:24:57 GMT+0200 (Centraleuropæisk sommertid),The main experiment item,yes,,/Users/ethan/Documents/GitHub/OpenSesame/MemorySpan,no,mono,no,18,no,white,no,no,768,legacy,legacy,183enter,osweb,1.3.8,enter,space,enter,enter,711,2735,711,559,2,legacy,1599121559172,1024,2,48000,-16,3,experiment,1,odd,168449,40,168966,174399,151453,163058,133113,163058,133112,40,40,174399,151453,175110,152013,175110,152013,2785,163058,133113,164335,134393,165618,135676,,136958,,138240,,139523,,140805,MemorySpan_1,0,48746,69,yes,1024
6,5,5,4,3000,w,w,w,w,500,750,0,0,686,686,black,no,legacy,legacy,legacy,0,numbers,uniform,,90,0,12,0,12,60,2,9,12,60,2,9,0,0,12,60,0,12,60,2,9,2,9,0,2,9,2,9,2,9,2,9,2,9,2,9,2,9,2,9,2,9,Thu Sep 03 2020 10:24:57 GMT+0200 (Centraleuropæisk sommertid),The main experiment item,yes,,/Users/ethan/Documents/GitHub/OpenSesame/MemorySpan,no,mono,no,18,no,white,no,no,768,legacy,legacy,6554enter,osweb,1.3.8,enter,space,enter,enter,671,2735,671,559,2,legacy,1599121559172,1024,2,48000,-16,4,experiment,1,odd,181288,40,181805,186222,151453,175132,133113,175132,133112,40,40,186222,151453,186900,152013,186900,152013,2785,175132,133113,176409,134393,177691,135676,178973,136958,,138240,,139523,,140805,MemorySpan_1,0,50766,74,yes,1024
5,5,5,1,3000,w,w,w,w,500,750,0,0,669,669,black,no,legacy,legacy,legacy,0,numbers,uniform,,97,0,13,0,17,60,3,9,17,60,3,9,0,0,17,60,0,17,60,3,9,3,9,0,3,9,3,9,3,9,3,9,3,9,3,9,3,9,3,9,3,9,Thu Sep 03 2020 10:24:57 GMT+0200 (Centraleuropæisk sommertid),The main experiment item,yes,,/Users/ethan/Documents/GitHub/OpenSesame/MemorySpan,no,mono,no,18,no,white,no,no,768,legacy,legacy,5551enter,osweb,1.3.8,enter,space,enter,enter,500,2735,500,559,2,legacy,1599121559172,1024,2,48000,-16,4,experiment,1,odd,193078,40,193595,198245,151453,186918,133113,186917,133112,40,40,198245,151453,198757,152013,198757,152013,2785,186918,133113,188199,134393,189481,135676,190764,136958,,138240,,139523,,140805,MemorySpan_1,0,52848,79,yes,1024
5,2,4,1,3000,2,w,w,w,500,750,0,0,654,654,black,no,legacy,legacy,legacy,0,numbers,uniform,,104,0,14,0,23,60,4,9,23,60,4,9,0,0,23,60,0,23,60,4,9,4,9,0,4,9,4,9,4,9,4,9,4,9,4,9,4,9,4,9,4,9,Thu Sep 03 2020 10:24:57 GMT+0200 (Centraleuropæisk sommertid),The main experiment item,yes,,/Users/ethan/Documents/GitHub/OpenSesame/MemorySpan,no,mono,no,18,no,white,no,no,768,legacy,legacy,51421enter,osweb,1.3.8,enter,space,enter,enter,710,2735,710,559,2,legacy,1599121559172,1024,2,48000,-16,5,experiment,1,odd,205701,40,206220,211369,151453,198775,133113,198775,133112,40,40,211369,151453,212080,152013,212080,152013,2785,198775,133113,200056,134393,201338,135676,202621,136958,203903,138240,,139523,,140805,MemorySpan_1,0,55626,85,yes,1024
2,9,6,4,3000,6,w,w,w,500,750,0,0,643,643,black,no,legacy,legacy,legacy,0,numbers,uniform,,111,0,15,0,29,60,5,9,29,60,5,9,0,0,29,60,0,29,60,5,9,5,9,0,5,9,5,9,5,9,5,9,5,9,5,9,5,9,5,9,5,9,Thu Sep 03 2020 10:24:57 GMT+0200 (Centraleuropæisk sommertid),The main experiment item,yes,,/Users/ethan/Documents/GitHub/OpenSesame/MemorySpan,no,mono,no,18,no,white,no,no,768,legacy,legacy,24624enter,osweb,1.3.8,enter,space,enter,enter,583,2735,583,559,2,legacy,1599121559172,1024,2,48000,-16,5,experiment,1,odd,219024,40,219540,224891,151453,212104,133113,212103,133112,40,40,224891,151453,225485,152013,225485,152013,2785,212104,133113,213378,134393,214661,135676,215943,136958,217225,138240,,139523,,140805,MemorySpan_1,0,58469,91,yes,1024
4,3,3,6,3000,4,5,w,w,500,750,0,0,651,651,black,no,legacy,legacy,legacy,0,numbers,uniform,,118,0,16,0,36,60,6,9,36,60,6,9,0,0,36,60,0,36,60,6,9,6,9,0,6,9,6,9,6,9,6,9,6,9,6,9,6,9,6,9,6,9,Thu Sep 03 2020 10:24:57 GMT+0200 (Centraleuropæisk sommertid),The main experiment item,yes,,/Users/ethan/Documents/GitHub/OpenSesame/MemorySpan,no,mono,no,18,no,white,no,no,768,legacy,legacy,433641enter,osweb,1.3.8,enter,space,enter,enter,460,2735,460,559,2,legacy,1599121559172,1024,2,48000,-16,6,experiment,1,odd,233195,40,233712,241711,151453,225504,133113,225503,133112,40,40,241711,151453,242171,152013,242171,152013,2785,225504,133113,226784,134393,228066,135676,229349,136958,230631,138240,231913,139523,,140805,MemorySpan_1,0,63809,98,yes,1024
3,1,8,4,3000,4,4,w,w,500,750,0,0,650,650,black,no,legacy,legacy,legacy,0,numbers,uniform,,125,0,17,0,42,60,7,9,42,60,7,9,0,0,42,60,0,42,60,7,9,7,9,0,7,9,7,9,7,9,7,9,7,9,7,9,7,9,7,9,7,9,Thu Sep 03 2020 10:24:57 GMT+0200 (Centraleuropæisk sommertid),The main experiment item,yes,,/Users/ethan/Documents/GitHub/OpenSesame/MemorySpan,no,mono,no,18,no,white,no,no,768,legacy,legacy,31844enter,osweb,1.3.8,enter,space,enter,enter,1133,2735,1133,559,2,legacy,1599121559172,1024,2,48000,-16,6,experiment,1,odd,249882,40,250398,256132,151453,242190,133113,242190,133112,40,40,256132,151453,257276,152013,257276,152013,2785,242190,133113,243470,134393,244753,135676,246035,136958,247317,138240,248599,139523,,140805,MemorySpan_1,0,67596,104,yes,1024
6,3,9,9,3000,6,5,4,w,500,750,0,0,667,667,black,no,legacy,legacy,legacy,0,numbers,uniform,,132,0,18,0,48,60,8,9,48,60,8,9,0,0,48,60,0,48,60,8,9,8,9,0,8,9,8,9,8,9,8,9,8,9,8,9,8,9,8,9,8,9,Thu Sep 03 2020 10:24:57 GMT+0200 (Centraleuropæisk sommertid),The main experiment item,yes,,/Users/ethan/Documents/GitHub/OpenSesame/MemorySpan,no,mono,no,18,no,white,no,no,768,legacy,legacy,45632enter,osweb,1.3.8,enter,space,enter,enter,639,2735,639,559,2,legacy,1599121559172,1024,2,48000,-16,7,experiment,1,odd,265752,40,266269,274484,151453,257298,133113,257297,133112,40,40,274484,151453,275127,152013,275128,152013,2785,257297,133113,258575,134393,259857,135676,261139,136958,262421,138240,263704,139523,264986,140805,MemorySpan_1,0,73366,110,yes,1024
9,6,1,8,3000,5,3,4,w,500,750,0,0,663,663,black,no,legacy,legacy,legacy,0,numbers,uniform,,139,0,19,0,55,60,9,9,55,60,9,9,0,0,55,60,0,55,60,9,9,9,9,0,9,9,9,9,9,9,9,9,9,9,9,9,9,9,9,9,9,9,Thu Sep 03 2020 10:24:57 GMT+0200 (Centraleuropæisk sommertid),The main experiment item,yes,,/Users/ethan/Documents/GitHub/OpenSesame/MemorySpan,no,mono,no,18,no,white,no,no,768,legacy,legacy,961838enter,osweb,1.3.8,enter,space,enter,enter,516,2735,516,559,2,legacy,1599121559172,1024,2,48000,-16,7,experiment,1,odd,283604,40,284121,290971,151453,275145,133113,275145,133112,40,40,290971,151453,291497,152013,291498,152013,2785,275145,133113,276427,134393,277709,135676,278991,136958,280273,138240,281556,139523,282838,140805,MemorySpan_1,0,77602,117,yes,1024
v,j,y,w,3000,w,w,w,w,500,750,0,0,717,717,black,no,legacy,legacy,legacy,0,letters,uniform,,6,0,0,0,,3,,0,,3,,0,0,0,,3,0,,3,,0,,0,0,,0,,0,,0,,0,,0,,0,,0,,0,,0,Thu Sep 03 2020 10:24:58 GMT+0200 (Centraleuropæisk sommertid),The main experiment item,yes,,/Users/ethan/Documents/GitHub/OpenSesame/MemorySpan,no,mono,no,18,no,white,no,no,768,legacy,legacy,vjyenter,osweb,1.3.8,enter,j,,enter,774,1065,,774,2,legacy,1599121510315,1024,2,48000,-16,3,experiment,0,even,6492,26,7014,,12172,,1118,,1117,25,26,,12172,,12949,,12950,1094,,1118,,2393,,3676,,,,,,,,,MemorySpan_1,0,2866,4,yes,1024
z,v,y,w,3000,w,w,w,w,500,750,0,0,794,794,black,no,legacy,legacy,legacy,0,letters,uniform,,13,0,1,0,,7,,1,,7,,1,0,0,,7,0,,7,,1,,1,0,,1,,1,,1,,1,,1,,1,,1,,1,,1,Thu Sep 03 2020 10:24:58 GMT+0200 (Centraleuropæisk sommertid),The main experiment item,yes,,/Users/ethan/Documents/GitHub/OpenSesame/MemorySpan,no,mono,no,18,no,white,no,no,768,legacy,legacy,zvyenter,osweb,1.3.8,enter,j,,enter,1212,1065,,1212,2,legacy,1599121510315,1024,2,48000,-16,3,experiment,0,even,18350,26,18866,,24196,,12965,,12964,25,26,,24196,,25424,,25425,1094,,12964,,14232,,15515,,,,,,,,,MemorySpan_1,0,6353,8,yes,1024
z,x,m,y,3000,w,w,w,w,500,750,0,0,737,737,black,no,legacy,legacy,legacy,0,letters,uniform,,20,0,2,0,,11,,2,,11,,2,0,0,,11,0,,11,,2,,2,0,,2,,2,,2,,2,,2,,2,,2,,2,,2,Thu Sep 03 2020 10:24:58 GMT+0200 (Centraleuropæisk sommertid),The main experiment item,yes,,/Users/ethan/Documents/GitHub/OpenSesame/MemorySpan,no,mono,no,18,no,white,no,no,768,legacy,legacy,xmyenter,osweb,1.3.8,enter,j,,enter,614,1065,,614,2,legacy,1599121510315,1024,2,48000,-16,4,experiment,0,even,31591,26,32108,,37054,,25439,,25438,25,26,,37054,,37682,,37683,1094,,25439,,26709,,27991,,29274,,,,,,,MemorySpan_1,0,8845,12,yes,1024
t,q,t,f,3000,w,w,w,w,500,750,0,0,873,873,black,no,legacy,legacy,legacy,0,letters,uniform,,27,0,3,0,,16,,3,,16,,3,0,0,,16,0,,16,,3,,3,0,,3,,3,,3,,3,,3,,3,,3,,3,,3,Thu Sep 03 2020 10:24:58 GMT+0200 (Centraleuropæisk sommertid),The main experiment item,yes,,/Users/ethan/Documents/GitHub/OpenSesame/MemorySpan,no,mono,no,18,no,white,no,no,768,legacy,legacy,tqmyenter,osweb,1.3.8,enter,j,,enter,2709,1065,,2709,2,legacy,1599121510315,1024,2,48000,-16,4,experiment,0,even,43842,26,44359,,50713,,37697,,37697,25,26,,50713,,53424,,53426,1094,,37697,,38966,,40249,,41532,,,,,,,MemorySpan_1,0,14848,17,yes,1024
d,y,v,f,3000,x,w,w,w,500,750,0,0,866,866,black,no,legacy,legacy,legacy,0,letters,uniform,,34,0,4,0,,22,,4,,22,,4,0,0,,22,0,,22,,4,,4,0,,4,,4,,4,,4,,4,,4,,4,,4,,4,Thu Sep 03 2020 10:24:58 GMT+0200 (Centraleuropæisk sommertid),The main experiment item,yes,,/Users/ethan/Documents/GitHub/OpenSesame/MemorySpan,no,mono,no,18,no,white,no,no,768,legacy,legacy,dtwmxenter,osweb,1.3.8,enter,j,,enter,700,1065,,700,2,legacy,1599121510315,1024,2,48000,-16,5,experiment,0,even,60371,26,60889,,68351,,53440,,53439,25,26,,68351,,69062,,69063,1094,,53440,,54722,,56005,,57288,,58571,,,,,MemorySpan_1,0,19922,23,yes,1024
i,m,v,t,3000,k,w,w,w,500,750,0,0,811,811,black,no,legacy,legacy,legacy,0,letters,uniform,,41,0,5,0,,28,,5,,28,,5,0,0,,28,0,,28,,5,,5,0,,5,,5,,5,,5,,5,,5,,5,,5,,5,Thu Sep 03 2020 10:24:58 GMT+0200 (Centraleuropæisk sommertid),The main experiment item,yes,,/Users/ethan/Documents/GitHub/OpenSesame/MemorySpan,no,mono,no,18,no,white,no,no,768,legacy,legacy,imvtkenter,osweb,1.3.8,enter,j,,enter,627,1065,,627,2,legacy,1599121510315,1024,2,48000,-16,5,experiment,0,even,75987,26,76506,,82524,,69078,,69077,25,26,,82524,,83152,,83152,1094,,69078,,70346,,71629,,72913,,74196,,,,,MemorySpan_1,0,23517,29,yes,1024
g,r,y,p,3000,y,r,w,w,500,750,0,0,776,776,black,no,legacy,legacy,legacy,0,letters,uniform,,48,0,6,0,,35,,6,,35,,6,0,0,,35,0,,35,,6,,6,0,,6,,6,,6,,6,,6,,6,,6,,6,,6,Thu Sep 03 2020 10:24:58 GMT+0200 (Centraleuropæisk sommertid),The main experiment item,yes,,/Users/ethan/Documents/GitHub/OpenSesame/MemorySpan,no,mono,no,18,no,white,no,no,768,legacy,legacy,grymprenter,osweb,1.3.8,enter,j,,enter,813,1065,,813,2,legacy,1599121510315,1024,2,48000,-16,6,experiment,0,even,90846,26,91363,,98043,,83167,,83166,25,26,,98043,,98871,,98872,1094,,83167,,84437,,85713,,86996,,88280,,89563,,,MemorySpan_1,0,27918,36,yes,1024
i,m,u,u,3000,e,r,w,w,500,750,0,0,745,745,black,no,legacy,legacy,legacy,0,letters,uniform,,55,0,7,0,,42,,7,,42,,7,0,0,,42,0,,42,,7,,7,0,,7,,7,,7,,7,,7,,7,,7,,7,,7,Thu Sep 03 2020 10:24:58 GMT+0200 (Centraleuropæisk sommertid),The main experiment item,yes,,/Users/ethan/Documents/GitHub/OpenSesame/MemorySpan,no,mono,no,18,no,white,no,no,768,legacy,legacy,imuureenter,osweb,1.3.8,enter,j,,enter,741,1065,,741,2,legacy,1599121510315,1024,2,48000,-16,6,experiment,0,even,106555,26,107065,,113552,,98887,,98886,25,26,,113552,,114296,,114297,1094,,98887,,100155,,101437,,102706,,103988,,105271,,,MemorySpan_1,0,32034,43,yes,1024
v,e,z,g,3000,s,q,l,w,500,750,0,0,820,820,black,no,legacy,legacy,legacy,0,letters,uniform,,62,0,8,0,,48,,8,,48,,8,0,0,,48,0,,48,,8,,8,0,,8,,8,,8,,8,,8,,8,,8,,8,,8,Thu Sep 03 2020 10:24:58 GMT+0200 (Centraleuropæisk sommertid),The main experiment item,yes,,/Users/ethan/Documents/GitHub/OpenSesame/MemorySpan,no,mono,no,18,no,white,no,no,768,legacy,legacy,vesqlenter,osweb,1.3.8,enter,j,,enter,2895,1065,,2895,2,legacy,1599121510315,1024,2,48000,-16,7,experiment,0,even,122722,26,123240,,131552,,114312,,114311,25,26,,131552,,134463,,134464,1094,,114312,,115579,,116847,,118123,,119406,,120673,,121956,MemorySpan_1,0,40157,49,yes,1024
u,p,t,x,3000,i,p,f,w,500,750,0,0,827,827,black,no,legacy,legacy,legacy,0,letters,uniform,,69,0,9,0,,58,,9,,58,,9,0,0,,58,0,,58,,9,,9,0,,9,,9,,9,,9,,9,,9,,9,,9,,9,Thu Sep 03 2020 10:24:58 GMT+0200 (Centraleuropæisk sommertid),The main experiment item,yes,,/Users/ethan/Documents/GitHub/OpenSesame/MemorySpan,no,mono,no,18,no,white,no,no,768,legacy,legacy,uptxirtenter,osweb,1.3.8,enter,j,,enter,1155,1065,,1155,2,legacy,1599121510315,1024,2,48000,-16,7,experiment,0,even,142926,26,143443,,154038,,134478,,134477,25,26,,154038,,155201,,155202,1094,,134478,,135747,,137030,,138314,,139593,,140876,,142159,MemorySpan_1,0,48775,59,yes,1024
3,9,5,w,3000,w,w,w,w,500,750,0,0,821,821,black,no,legacy,legacy,legacy,0,numbers,uniform,,76,0,10,0,3,58,0,9,3,58,0,9,0,0,3,58,0,3,58,0,9,0,9,0,0,9,0,9,0,9,0,9,0,9,0,9,0,9,0,9,0,9,Thu Sep 03 2020 10:24:58 GMT+0200 (Centraleuropæisk sommertid),The main experiment item,yes,,/Users/ethan/Documents/GitHub/OpenSesame/MemorySpan,no,mono,no,18,no,white,no,no,768,legacy,legacy,395enter,osweb,1.3.8,enter,j,enter,enter,624,1065,624,1155,2,legacy,1599121510315,1024,2,48000,-16,3,experiment,0,even,160594,26,161111,166530,154038,155217,134478,155216,134477,25,26,166530,154038,167159,155201,167160,155202,1094,155217,134478,156484,135747,157768,137030,,138314,,139593,,140876,,142159,MemorySpan_1,0,51754,63,yes,1024
1,8,3,w,3000,w,w,w,w,500,750,0,0,803,803,black,no,legacy,legacy,legacy,0,numbers,uniform,,83,0,11,0,7,58,1,9,7,58,1,9,0,0,7,58,0,7,58,1,9,1,9,0,1,9,1,9,1,9,1,9,1,9,1,9,1,9,1,9,1,9,Thu Sep 03 2020 10:24:58 GMT+0200 (Centraleuropæisk sommertid),The main experiment item,yes,,/Users/ethan/Documents/GitHub/OpenSesame/MemorySpan,no,mono,no,18,no,white,no,no,768,legacy,legacy,183enter,osweb,1.3.8,enter,j,enter,enter,357,1065,357,1155,2,legacy,1599121510315,1024,2,48000,-16,3,experiment,0,even,172535,26,173052,177789,154038,167174,134478,167173,134477,25,26,177789,154038,178151,155201,178152,155202,1094,167174,134478,168441,135747,169711,137030,,138314,,139593,,140876,,142159,MemorySpan_1,0,53793,67,yes,1024
6,5,5,4,3000,w,w,w,w,500,750,0,0,794,794,black,no,legacy,legacy,legacy,0,numbers,uniform,,90,0,12,0,12,58,2,9,12,58,2,9,0,0,12,58,0,12,58,2,9,2,9,0,2,9,2,9,2,9,2,9,2,9,2,9,2,9,2,9,2,9,Thu Sep 03 2020 10:24:58 GMT+0200 (Centraleuropæisk sommertid),The main experiment item,yes,,/Users/ethan/Documents/GitHub/OpenSesame/MemorySpan,no,mono,no,18,no,white,no,no,768,legacy,legacy,6554enter,osweb,1.3.8,enter,j,enter,enter,694,1065,694,1155,2,legacy,1599121510315,1024,2,48000,-16,4,experiment,0,even,184309,26,184828,190557,154038,178166,134478,178166,134477,25,26,190557,154038,191268,155201,191269,155202,1094,178166,134478,179435,135747,180710,137030,181993,138314,,139593,,140876,,142159,MemorySpan_1,0,57145,72,yes,1024
5,5,5,1,3000,w,w,w,w,500,750,0,0,781,781,black,no,legacy,legacy,legacy,0,numbers,uniform,,97,0,13,0,17,58,3,9,17,58,3,9,0,0,17,58,0,17,58,3,9,3,9,0,3,9,3,9,3,9,3,9,3,9,3,9,3,9,3,9,3,9,Thu Sep 03 2020 10:24:58 GMT+0200 (Centraleuropæisk sommertid),The main experiment item,yes,,/Users/ethan/Documents/GitHub/OpenSesame/MemorySpan,no,mono,no,18,no,white,no,no,768,legacy,legacy,5551enter,osweb,1.3.8,enter,j,enter,enter,700,1065,700,1155,2,legacy,1599121510315,1024,2,48000,-16,4,experiment,0,even,197435,26,197952,203315,154038,191282,134478,191282,134477,25,26,203315,154038,204027,155201,204028,155202,1094,191282,134478,192552,135747,193835,137030,195119,138314,,139593,,140876,,142159,MemorySpan_1,0,60138,77,yes,1024
5,2,4,1,3000,2,w,w,w,500,750,0,0,763,763,black,no,legacy,legacy,legacy,0,numbers,uniform,,104,0,14,0,23,58,4,9,23,58,4,9,0,0,23,58,0,23,58,4,9,4,9,0,4,9,4,9,4,9,4,9,4,9,4,9,4,9,4,9,4,9,Thu Sep 03 2020 10:24:58 GMT+0200 (Centraleuropæisk sommertid),The main experiment item,yes,,/Users/ethan/Documents/GitHub/OpenSesame/MemorySpan,no,mono,no,18,no,white,no,no,768,legacy,legacy,52412enter,osweb,1.3.8,enter,j,enter,enter,609,1065,609,1155,2,legacy,1599121510315,1024,2,48000,-16,5,experiment,0,even,210961,26,211480,217157,154038,204041,134478,204041,134477,25,26,217157,154038,217769,155201,217770,155202,1094,204041,134478,205311,135747,206594,137030,207877,138314,209161,139593,,140876,,142159,MemorySpan_1,0,63327,83,yes,1024
2,9,6,4,3000,6,w,w,w,500,750,0,0,750,750,black,no,legacy,legacy,legacy,0,numbers,uniform,,111,0,15,0,29,58,5,9,29,58,5,9,0,0,29,58,0,29,58,5,9,5,9,0,5,9,5,9,5,9,5,9,5,9,5,9,5,9,5,9,5,9,Thu Sep 03 2020 10:24:58 GMT+0200 (Centraleuropæisk sommertid),The main experiment item,yes,,/Users/ethan/Documents/GitHub/OpenSesame/MemorySpan,no,mono,no,18,no,white,no,no,768,legacy,legacy,29646enter,osweb,1.3.8,enter,j,enter,enter,610,1065,610,1155,2,legacy,1599121510315,1024,2,48000,-16,5,experiment,0,even,224695,26,225211,231165,154038,217783,134478,217782,134477,25,26,231165,154038,231776,155201,231776,155202,1094,217783,134478,219052,135747,220336,137030,221620,138314,222896,139593,,140876,,142159,MemorySpan_1,0,66784,89,yes,1024
4,3,3,6,3000,4,5,w,w,500,750,0,0,714,714,black,no,legacy,legacy,legacy,0,numbers,uniform,,118,0,16,0,40,58,6,9,40,58,6,9,0,0,40,58,0,40,58,6,9,6,9,0,6,9,6,9,6,9,6,9,6,9,6,9,6,9,6,9,6,9,Thu Sep 03 2020 10:24:58 GMT+0200 (Centraleuropæisk sommertid),The main experiment item,yes,,/Users/ethan/Documents/GitHub/OpenSesame/MemorySpan,no,mono,no,18,no,white,no,no,768,legacy,legacy,433645enter,osweb,1.3.8,enter,j,enter,enter,651,1065,651,1155,2,legacy,1599121510315,1024,2,48000,-16,6,experiment,0,even,239470,26,239988,247101,154038,231790,134478,231789,134477,25,26,247102,154038,247764,155201,247764,155202,1094,231790,134478,233054,135747,234337,137030,235620,138314,236903,139593,238187,140876,,142159,MemorySpan_1,0,71377,100,yes,1024
3,1,8,4,3000,4,4,w,w,500,750,0,0,702,702,black,no,legacy,legacy,legacy,0,numbers,uniform,,125,0,17,0,47,58,7,9,47,58,7,9,0,0,47,58,0,47,58,7,9,7,9,0,7,9,7,9,7,9,7,9,7,9,7,9,7,9,7,9,7,9,Thu Sep 03 2020 10:24:58 GMT+0200 (Centraleuropæisk sommertid),The main experiment item,yes,,/Users/ethan/Documents/GitHub/OpenSesame/MemorySpan,no,mono,no,18,no,white,no,no,768,legacy,legacy,318444enter,osweb,1.3.8,enter,j,enter,enter,643,1065,643,1155,2,legacy,1599121510315,1024,2,48000,-16,6,experiment,0,even,255441,26,255958,262178,154038,247778,134478,247777,134477,25,26,262178,154038,262822,155201,262822,155202,1094,247778,134478,249047,135747,250331,137030,251614,138314,252897,139593,254181,140876,,142159,MemorySpan_1,0,75143,107,yes,1024
6,3,9,9,3000,6,5,4,w,500,750,0,0,698,698,black,no,legacy,legacy,legacy,0,numbers,uniform,,132,0,18,0,58,58,8,9,58,58,8,9,0,0,58,58,0,58,58,8,9,8,9,0,8,9,8,9,8,9,8,9,8,9,8,9,8,9,8,9,8,9,Thu Sep 03 2020 10:24:58 GMT+0200 (Centraleuropæisk sommertid),The main experiment item,yes,,/Users/ethan/Documents/GitHub/OpenSesame/MemorySpan,no,mono,no,18,no,white,no,no,768,legacy,legacy,63996543enter,osweb,1.3.8,enter,j,enter,enter,903,1065,903,1155,2,legacy,1599121510315,1024,2,48000,-16,7,experiment,0,even,271283,26,271799,281346,154038,262835,134478,262835,134477,25,26,281346,154038,282258,155201,282258,155202,1094,262835,134478,264107,135747,265383,137030,266666,138314,267949,139593,269233,140876,270516,142159,MemorySpan_1,0,82422,118,yes,1024
9,6,1,8,3000,5,3,4,w,500,750,0,0,692,692,black,no,legacy,legacy,legacy,0,numbers,uniform,,139,0,19,0,66,58,9,9,66,58,9,9,0,0,66,58,0,66,58,9,9,9,9,0,9,9,9,9,9,9,9,9,9,9,9,9,9,9,9,9,9,9,Thu Sep 03 2020 10:24:58 GMT+0200 (Centraleuropæisk sommertid),The main experiment item,yes,,/Users/ethan/Documents/GitHub/OpenSesame/MemorySpan,no,mono,no,18,no,white,no,no,768,legacy,legacy,6918654enter,osweb,1.3.8,enter,j,enter,enter,464,1065,464,1155,2,legacy,1599121510315,1024,2,48000,-16,7,experiment,0,even,290716,26,291233,298681,154038,282272,134478,282271,134477,25,26,298681,154038,299158,155201,299158,155202,1094,282272,134478,283541,135747,284826,137030,286108,138314,287383,139593,288666,140876,289949,142159,MemorySpan_1,0,87212,126,yes,1024
v,j,y,w,3000,w,w,w,w,500,750,0,0,413,413,black,no,legacy,legacy,legacy,0,letters,uniform,,6,0,0,0,,3,,0,,3,,0,0,0,,3,0,,3,,0,,0,0,,0,,0,,0,,0,,0,,0,,0,,0,,0,Thu Sep 03 2020 10:24:58 GMT+0200 (CEST),The main experiment item,yes,,/Users/ethan/Documents/GitHub/OpenSesame/MemorySpan,no,mono,no,18,no,white,no,no,768,legacy,legacy,vjyenter,osweb,1.3.8,enter,enter,,enter,454,2131,,454,2,legacy,1599121554214,1024,2,48000,-16,3,experiment,1,odd,7583,23,8101,,12413,,2192,,2190,23,23,,12413,,12882,,12883,2165,,2191,,3467,,4751,,,,,,,,,MemorySpan_1,0,1653,4,yes,1024
z,v,y,w,3000,w,w,w,w,500,750,0,0,459,459,black,no,legacy,legacy,legacy,0,letters,uniform,,13,0,1,0,,7,,1,,7,,1,0,0,,7,0,,7,,1,,1,0,,1,,1,,1,,1,,1,,1,,1,,1,,1,Thu Sep 03 2020 10:24:58 GMT+0200 (CEST),The main experiment item,yes,,/Users/ethan/Documents/GitHub/OpenSesame/MemorySpan,no,mono,no,18,no,white,no,no,768,legacy,legacy,zvyenter,osweb,1.3.8,enter,enter,,enter,494,2131,,494,2,legacy,1599121554214,1024,2,48000,-16,3,experiment,1,odd,18300,23,18817,,23430,,12908,,12906,23,23,,23430,,23933,,23934,2165,,12908,,14185,,15468,,,,,,,,,MemorySpan_1,0,3669,8,yes,1024
z,x,m,y,3000,w,w,w,w,500,750,0,0,412,412,black,no,legacy,legacy,legacy,0,letters,uniform,,20,0,2,0,,12,,2,,12,,2,0,0,,12,0,,12,,2,,2,0,,2,,2,,2,,2,,2,,2,,2,,2,,2,Thu Sep 03 2020 10:24:58 GMT+0200 (CEST),The main experiment item,yes,,/Users/ethan/Documents/GitHub/OpenSesame/MemorySpan,no,mono,no,18,no,white,no,no,768,legacy,legacy,zxmyenter,osweb,1.3.8,enter,enter,,enter,516,2131,,516,2,legacy,1599121554214,1024,2,48000,-16,4,experiment,1,odd,30118,23,30636,,34913,,23957,,23955,23,23,,34913,,35434,,35435,2165,,23956,,25242,,26520,,27803,,,,,,,MemorySpan_1,0,5355,13,yes,1024
t,q,t,f,3000,w,w,w,w,500,750,0,0,435,435,black,no,legacy,legacy,legacy,0,letters,uniform,,27,0,3,0,,17,,3,,17,,3,0,0,,17,0,,17,,3,,3,0,,3,,3,,3,,3,,3,,3,,3,,3,,3,Thu Sep 03 2020 10:24:58 GMT+0200 (CEST),The main experiment item,yes,,/Users/ethan/Documents/GitHub/OpenSesame/MemorySpan,no,mono,no,18,no,white,no,no,768,legacy,legacy,tqtfenter,osweb,1.3.8,enter,enter,,enter,372,2131,,372,2,legacy,1599121554214,1024,2,48000,-16,4,experiment,1,odd,41619,23,42136,,47347,,35457,,35456,23,23,,47347,,47735,,47735,2165,,35457,,36737,,38020,,39303,,,,,,,MemorySpan_1,0,7826,18,yes,1024
d,y,v,f,3000,x,w,w,w,500,750,0,0,433,433,black,no,legacy,legacy,legacy,0,letters,uniform,,34,0,4,0,,23,,4,,23,,4,0,0,,23,0,,23,,4,,4,0,,4,,4,,4,,4,,4,,4,,4,,4,,4,Thu Sep 03 2020 10:24:58 GMT+0200 (CEST),The main experiment item,yes,,/Users/ethan/Documents/GitHub/OpenSesame/MemorySpan,no,mono,no,18,no,white,no,no,768,legacy,legacy,dyvfxenter,osweb,1.3.8,enter,enter,,enter,285,2131,,285,2,legacy,1599121554214,1024,2,48000,-16,5,experiment,1,odd,54686,23,55204,,60597,,47759,,47757,23,23,,60597,,60885,,60886,2165,,47759,,49037,,50320,,51604,,52887,,,,,MemorySpan_1,0,10387,24,yes,1024
i,m,v,t,3000,k,w,w,w,500,750,0,0,414,414,black,no,legacy,legacy,legacy,0,letters,uniform,,41,0,5,0,,29,,5,,29,,5,0,0,,29,0,,29,,5,,5,0,,5,,5,,5,,5,,5,,5,,5,,5,,5,Thu Sep 03 2020 10:24:58 GMT+0200 (CEST),The main experiment item,yes,,/Users/ethan/Documents/GitHub/OpenSesame/MemorySpan,no,mono,no,18,no,white,no,no,768,legacy,legacy,imvtkenter,osweb,1.3.8,enter,enter,,enter,456,2131,,456,2,legacy,1599121554214,1024,2,48000,-16,5,experiment,1,odd,67837,23,68355,,73083,,60909,,60908,23,23,,73083,,73553,,73554,2165,,60909,,62188,,63471,,64755,,66039,,,,,MemorySpan_1,0,12429,30,yes,1024
g,r,y,p,3000,y,r,w,w,500,750,0,0,414,414,black,no,legacy,legacy,legacy,0,letters,uniform,,48,0,6,0,,38,,6,,38,,6,0,0,,38,0,,38,,6,,6,0,,6,,6,,6,,6,,6,,6,,6,,6,,6,Thu Sep 03 2020 10:24:58 GMT+0200 (CEST),The main experiment item,yes,,/Users/ethan/Documents/GitHub/OpenSesame/MemorySpan,no,mono,no,18,no,white,no,no,768,legacy,legacy,grypyrenter,osweb,1.3.8,enter,enter,,enter,498,2131,,498,2,legacy,1599121554214,1024,2,48000,-16,6,experiment,1,odd,81271,23,81789,,88234,,73576,,73574,23,23,,88234,,88738,,88738,2165,,73576,,74855,,76139,,77422,,78706,,79989,,,MemorySpan_1,0,16165,39,yes,1024
i,m,u,u,3000,e,r,w,w,500,750,0,0,399,399,black,no,legacy,legacy,legacy,0,letters,uniform,,55,0,7,0,,45,,7,,45,,7,0,0,,45,0,,45,,7,,7,0,,7,,7,,7,,7,,7,,7,,7,,7,,7,Thu Sep 03 2020 10:24:58 GMT+0200 (CEST),The main experiment item,yes,,/Users/ethan/Documents/GitHub/OpenSesame/MemorySpan,no,mono,no,18,no,white,no,no,768,legacy,legacy,imuuerenter,osweb,1.3.8,enter,enter,,enter,400,2131,,400,2,legacy,1599121554214,1024,2,48000,-16,6,experiment,1,odd,96456,23,96973,,101919,,88761,,88759,23,23,,101919,,102322,,102323,2165,,88761,,90040,,91323,,92605,,93890,,95174,,,MemorySpan_1,0,18374,46,yes,1024
v,e,z,g,3000,s,q,l,w,500,750,0,0,590,590,black,no,legacy,legacy,legacy,0,letters,uniform,,62,0,8,0,,52,,8,,52,,8,0,0,,52,0,,52,,8,,8,0,,8,,8,,8,,8,,8,,8,,8,,8,,8,Thu Sep 03 2020 10:24:58 GMT+0200 (CEST),The main experiment item,yes,,/Users/ethan/Documents/GitHub/OpenSesame/MemorySpan,no,mono,no,18,no,white,no,no,768,legacy,legacy,vzesqrenter,osweb,1.3.8,enter,enter,,enter,516,2131,,516,2,legacy,1599121554214,1024,2,48000,-16,7,experiment,1,odd,110806,23,111324,,126820,,102343,,102342,23,23,,126820,,127340,,127341,2165,,102343,,103624,,104908,,106191,,107474,,108758,,110041,MemorySpan_1,0,31249,53,yes,1024
u,p,t,x,3000,i,p,f,w,500,750,0,0,658,658,black,no,legacy,legacy,legacy,0,letters,uniform,,69,0,9,0,,64,,9,,64,,9,0,0,,64,0,,64,,9,,9,0,,9,,9,,9,,9,,9,,9,,9,,9,,9,Thu Sep 03 2020 10:24:58 GMT+0200 (CEST),The main experiment item,yes,,/Users/ethan/Documents/GitHub/OpenSesame/MemorySpan,no,mono,no,18,no,white,no,no,768,legacy,legacy,uptxitfenter,osweb,1.3.8,enter,enter,,enter,962,2131,,962,2,legacy,1599121554214,1024,2,48000,-16,7,experiment,1,odd,135825,23,136342,,150155,,127361,,127360,23,23,,150155,,151125,,151127,2165,,127361,,128643,,129926,,131209,,132493,,133776,,135060,MemorySpan_1,0,42745,65,yes,1024
3,9,5,w,3000,w,w,w,w,500,750,0,0,640,640,black,no,legacy,legacy,legacy,0,numbers,uniform,,76,0,10,0,3,64,0,9,3,64,0,9,0,0,3,64,0,3,64,0,9,0,9,0,0,9,0,9,0,9,0,9,0,9,0,9,0,9,0,9,0,9,Thu Sep 03 2020 10:24:58 GMT+0200 (CEST),The main experiment item,yes,,/Users/ethan/Documents/GitHub/OpenSesame/MemorySpan,no,mono,no,18,no,white,no,no,768,legacy,legacy,395enter,osweb,1.3.8,enter,enter,enter,enter,412,2131,412,962,2,legacy,1599121554214,1024,2,48000,-16,3,experiment,1,odd,156543,23,157061,161189,150155,151154,127361,151152,127360,23,23,161189,150155,161609,151125,161610,151127,2165,151153,127361,152428,128643,153711,129926,,131209,,132493,,133776,,135060,MemorySpan_1,0,44181,69,yes,1024
1,8,3,w,3000,w,w,w,w,500,750,0,0,626,626,black,no,legacy,legacy,legacy,0,numbers,uniform,,83,0,11,0,7,64,1,9,7,64,1,9,0,0,7,64,0,7,64,1,9,1,9,0,1,9,1,9,1,9,1,9,1,9,1,9,1,9,1,9,1,9,Thu Sep 03 2020 10:24:58 GMT+0200 (CEST),The main experiment item,yes,,/Users/ethan/Documents/GitHub/OpenSesame/MemorySpan,no,mono,no,18,no,white,no,no,768,legacy,legacy,183enter,osweb,1.3.8,enter,enter,enter,enter,334,2131,334,962,2,legacy,1599121554214,1024,2,48000,-16,3,experiment,1,odd,167027,23,167544,171822,150155,161631,127361,161630,127360,23,23,171823,150155,172160,151125,172161,151127,2165,161631,127361,162912,128643,164195,129926,,131209,,132493,,133776,,135060,MemorySpan_1,0,45694,73,yes,1024
6,5,5,4,3000,w,w,w,w,500,750,0,0,603,603,black,no,legacy,legacy,legacy,0,numbers,uniform,,90,0,12,0,12,64,2,9,12,64,2,9,0,0,12,64,0,12,64,2,9,2,9,0,2,9,2,9,2,9,2,9,2,9,2,9,2,9,2,9,2,9,Thu Sep 03 2020 10:24:58 GMT+0200 (CEST),The main experiment item,yes,,/Users/ethan/Documents/GitHub/OpenSesame/MemorySpan,no,mono,no,18,no,white,no,no,768,legacy,legacy,6554enter,osweb,1.3.8,enter,enter,enter,enter,478,2131,478,962,2,legacy,1599121554214,1024,2,48000,-16,4,experiment,1,odd,178344,23,178860,182824,150155,172181,127361,172179,127360,23,23,182824,150155,183311,151125,183311,151127,2165,172181,127361,173462,128643,174745,129926,176029,131209,,132493,,133776,,135060,MemorySpan_1,0,47057,78,yes,1024
5,5,5,1,3000,w,w,w,w,500,750,0,0,588,588,black,no,legacy,legacy,legacy,0,numbers,uniform,,97,0,13,0,17,64,3,9,17,64,3,9,0,0,17,64,0,17,64,3,9,3,9,0,3,9,3,9,3,9,3,9,3,9,3,9,3,9,3,9,3,9,Thu Sep 03 2020 10:24:58 GMT+0200 (CEST),The main experiment item,yes,,/Users/ethan/Documents/GitHub/OpenSesame/MemorySpan,no,mono,no,18,no,white,no,no,768,legacy,legacy,5551enter,osweb,1.3.8,enter,enter,enter,enter,206,2131,206,962,2,legacy,1599121554214,1024,2,48000,-16,4,experiment,1,odd,189495,23,190012,194691,150155,183332,127361,183331,127360,23,23,194691,150155,194912,151125,194912,151127,2165,183332,127361,184613,128643,185897,129926,187180,131209,,132493,,133776,,135060,MemorySpan_1,0,48822,83,yes,1024
5,2,4,1,3000,2,w,w,w,500,750,0,0,574,574,black,no,legacy,legacy,legacy,0,numbers,uniform,,104,0,14,0,23,64,4,9,23,64,4,9,0,0,23,64,0,23,64,4,9,4,9,0,4,9,4,9,4,9,4,9,4,9,4,9,4,9,4,9,4,9,Thu Sep 03 2020 10:24:58 GMT+0200 (CEST),The main experiment item,yes,,/Users/ethan/Documents/GitHub/OpenSesame/MemorySpan,no,mono,no,18,no,white,no,no,768,legacy,legacy,52412enter,osweb,1.3.8,enter,enter,enter,enter,343,2131,343,962,2,legacy,1599121554214,1024,2,48000,-16,5,experiment,1,odd,201863,23,202380,207437,150155,194933,127361,194932,127360,23,23,207437,150155,207795,151125,207795,151127,2165,194933,127361,196213,128643,197497,129926,198781,131209,200064,132493,,133776,,135060,MemorySpan_1,0,51104,89,yes,1024
2,9,6,4,3000,6,w,w,w,500,750,0,0,558,558,black,no,legacy,legacy,legacy,0,numbers,uniform,,111,0,15,0,29,64,5,9,29,64,5,9,0,0,29,64,0,29,64,5,9,5,9,0,5,9,5,9,5,9,5,9,5,9,5,9,5,9,5,9,5,9,Thu Sep 03 2020 10:24:58 GMT+0200 (CEST),The main experiment item,yes,,/Users/ethan/Documents/GitHub/OpenSesame/MemorySpan,no,mono,no,18,no,white,no,no,768,legacy,legacy,29646enter,osweb,1.3.8,enter,enter,enter,enter,513,2131,513,962,2,legacy,1599121554214,1024,2,48000,-16,5,experiment,1,odd,214747,23,215264,219807,150155,207814,127361,207813,127360,23,23,219807,150155,220330,151125,220331,151127,2165,207814,127361,209098,128643,210381,129926,211665,131209,212948,132493,,133776,,135060,MemorySpan_1,0,53035,95,yes,1024
4,3,3,6,3000,4,5,w,w,500,750,0,0,559,559,black,no,legacy,legacy,legacy,0,numbers,uniform,,118,0,16,0,36,64,6,9,36,64,6,9,0,0,36,64,0,36,64,6,9,6,9,0,6,9,6,9,6,9,6,9,6,9,6,9,6,9,6,9,6,9,Thu Sep 03 2020 10:24:58 GMT+0200 (CEST),The main experiment item,yes,,/Users/ethan/Documents/GitHub/OpenSesame/MemorySpan,no,mono,no,18,no,white,no,no,768,legacy,legacy,433465enter,osweb,1.3.8,enter,enter,enter,enter,874,2131,874,962,2,legacy,1599121554214,1024,2,48000,-16,6,experiment,1,odd,228048,23,228564,234810,150155,220350,127361,220349,127360,23,23,234810,150155,235698,151125,235698,151127,2165,220350,127361,221632,128643,222916,129926,224199,131209,225482,132493,226766,133776,,135060,MemorySpan_1,0,57011,102,yes,1024
3,1,8,4,3000,4,4,w,w,500,750,0,0,546,546,black,no,legacy,legacy,legacy,0,numbers,uniform,,125,0,17,0,43,64,7,9,43,64,7,9,0,0,43,64,0,43,64,7,9,7,9,0,7,9,7,9,7,9,7,9,7,9,7,9,7,9,7,9,7,9,Thu Sep 03 2020 10:24:58 GMT+0200 (CEST),The main experiment item,yes,,/Users/ethan/Documents/GitHub/OpenSesame/MemorySpan,no,mono,no,18,no,white,no,no,768,legacy,legacy,318444enter,osweb,1.3.8,enter,enter,enter,enter,398,2131,398,962,2,legacy,1599121554214,1024,2,48000,-16,6,experiment,1,odd,243416,23,243933,249228,150155,235718,127361,235717,127360,23,23,249228,150155,249632,151125,249633,151127,2165,235718,127361,237000,128643,238283,129926,239568,131209,240850,132493,242134,133776,,135060,MemorySpan_1,0,59558,109,yes,1024
6,3,9,9,3000,6,5,4,w,500,750,0,0,569,569,black,no,legacy,legacy,legacy,0,numbers,uniform,,132,0,18,0,50,64,8,9,50,64,8,9,0,0,50,64,0,50,64,8,9,8,9,0,8,9,8,9,8,9,8,9,8,9,8,9,8,9,8,9,8,9,Thu Sep 03 2020 10:24:58 GMT+0200 (CEST),The main experiment item,yes,,/Users/ethan/Documents/GitHub/OpenSesame/MemorySpan,no,mono,no,18,no,white,no,no,768,legacy,legacy,396654enter,osweb,1.3.8,enter,enter,enter,enter,3236,2131,3236,962,2,legacy,1599121554214,1024,2,48000,-16,7,experiment,1,odd,258117,23,258633,265062,150155,249654,127361,249652,127360,23,23,265062,150155,268299,151125,268299,151127,2165,249654,127361,250934,128643,252217,129926,253501,131209,254784,132493,256068,133776,257351,135060,MemorySpan_1,0,66061,116,yes,1024
9,6,1,8,3000,5,3,4,w,500,750,0,0,600,600,black,no,legacy,legacy,legacy,0,numbers,uniform,,139,0,19,0,58,64,9,9,58,64,9,9,0,0,58,64,0,58,64,9,9,9,9,0,9,9,9,9,9,9,9,9,9,9,9,9,9,9,9,9,9,9,Thu Sep 03 2020 10:24:58 GMT+0200 (CEST),The main experiment item,yes,,/Users/ethan/Documents/GitHub/OpenSesame/MemorySpan,no,mono,no,18,no,white,no,no,768,legacy,legacy,9618534enter,osweb,1.3.8,enter,enter,enter,enter,1878,2131,1878,962,2,legacy,1599121554214,1024,2,48000,-16,7,experiment,1,odd,276785,23,277303,286881,150155,268320,127361,268318,127360,23,23,286881,150155,288768,151125,288769,151127,2165,268320,127361,269603,128643,270886,129926,272169,131209,273452,132493,274735,133776,276019,135060,MemorySpan_1,0,74351,124,yes,1024
v,j,y,w,3000,w,w,w,w,500,750,0,0,635,635,black,no,legacy,legacy,legacy,0,letters,uniform,,6,0,0,0,,3,,0,,3,,0,0,0,,3,0,,3,,0,,0,0,,0,,0,,0,,0,,0,,0,,0,,0,,0,Thu Sep 03 2020 10:24:59 GMT+0200 (Centraleuropæisk sommertid),The main experiment item,yes,,/Users/ethan/Documents/GitHub/OpenSesame/MemorySpan,no,mono,no,18,no,white,no,no,768,legacy,legacy,vjyenter,osweb,1.3.8,enter,enter,,enter,212,8406,,212,2,legacy,1599121486731,1024,2,48000,-16,3,experiment,1,odd,13911,91,14432,,19870,,8537,,8536,90,91,,19870,,20091,,20091,8497,,8537,,9814,,11099,,,,,,,,,MemorySpan_1,0,2540,4,yes,1024
z,v,y,w,3000,w,w,w,w,500,750,0,0,559,559,black,no,legacy,legacy,legacy,0,letters,uniform,,13,0,1,0,,7,,1,,7,,1,0,0,,7,0,,7,,1,,1,0,,1,,1,,1,,1,,1,,1,,1,,1,,1,Thu Sep 03 2020 10:24:59 GMT+0200 (Centraleuropæisk sommertid),The main experiment item,yes,,/Users/ethan/Documents/GitHub/OpenSesame/MemorySpan,no,mono,no,18,no,white,no,no,768,legacy,legacy,zvyenter,osweb,1.3.8,enter,enter,,enter,579,8406,,579,2,legacy,1599121486731,1024,2,48000,-16,3,experiment,1,odd,25514,91,26035,,30464,,20115,,20114,90,91,,30464,,31053,,31053,8497,,20115,,21393,,22687,,,,,,,,,MemorySpan_1,0,4469,8,yes,1024
z,x,m,y,3000,w,w,w,w,500,750,0,0,546,546,black,no,legacy,legacy,legacy,0,letters,uniform,,20,0,2,0,,12,,2,,12,,2,0,0,,12,0,,12,,2,,2,0,,2,,2,,2,,2,,2,,2,,2,,2,,2,Thu Sep 03 2020 10:24:59 GMT+0200 (Centraleuropæisk sommertid),The main experiment item,yes,,/Users/ethan/Documents/GitHub/OpenSesame/MemorySpan,no,mono,no,18,no,white,no,no,768,legacy,legacy,zxmyenter,osweb,1.3.8,enter,enter,,enter,562,8406,,562,2,legacy,1599121486731,1024,2,48000,-16,4,experiment,1,odd,37244,91,37762,,42928,,31073,,31073,90,91,,42928,,43509,,43510,8497,,31073,,32355,,33640,,34925,,,,,,,MemorySpan_1,0,7101,13,yes,1024
t,q,t,f,3000,w,w,w,w,500,750,0,0,499,499,black,no,legacy,legacy,legacy,0,letters,uniform,,27,0,3,0,,17,,3,,17,,3,0,0,,17,0,,17,,3,,3,0,,3,,3,,3,,3,,3,,3,,3,,3,,3,Thu Sep 03 2020 10:24:59 GMT+0200 (Centraleuropæisk sommertid),The main experiment item,yes,,/Users/ethan/Documents/GitHub/OpenSesame/MemorySpan,no,mono,no,18,no,white,no,no,768,legacy,legacy,tqtfenter,osweb,1.3.8,enter,enter,,enter,301,8406,,301,2,legacy,1599121486731,1024,2,48000,-16,4,experiment,1,odd,49674,91,50201,,54857,,43532,,43531,90,91,,54857,,55172,,55173,8497,,43532,,44802,,46071,,47355,,,,,,,MemorySpan_1,0,8976,18,yes,1024
d,y,v,f,3000,x,w,w,w,500,750,0,0,519,519,black,no,legacy,legacy,legacy,0,letters,uniform,,34,0,4,0,,23,,4,,23,,4,0,0,,23,0,,23,,4,,4,0,,4,,4,,4,,4,,4,,4,,4,,4,,4,Thu Sep 03 2020 10:24:59 GMT+0200 (Centraleuropæisk sommertid),The main experiment item,yes,,/Users/ethan/Documents/GitHub/OpenSesame/MemorySpan,no,mono,no,18,no,white,no,no,768,legacy,legacy,dyvfxenter,osweb,1.3.8,enter,enter,,enter,325,8406,,325,2,legacy,1599121486731,1024,2,48000,-16,5,experiment,1,odd,62071,91,62590,,68873,,55195,,55194,90,91,,68873,,69221,,69222,8497,,55195,,56449,,57733,,59002,,60286,,,,,MemorySpan_1,0,12461,24,yes,1024
i,m,v,t,3000,k,w,w,w,500,750,0,0,495,495,black,no,legacy,legacy,legacy,0,letters,uniform,,41,0,5,0,,29,,5,,29,,5,0,0,,29,0,,29,,5,,5,0,,5,,5,,5,,5,,5,,5,,5,,5,,5,Thu Sep 03 2020 10:24:59 GMT+0200 (Centraleuropæisk sommertid),The main experiment item,yes,,/Users/ethan/Documents/GitHub/OpenSesame/MemorySpan,no,mono,no,18,no,white,no,no,768,legacy,legacy,imvtkenter,osweb,1.3.8,enter,enter,,enter,339,8406,,339,2,legacy,1599121486731,1024,2,48000,-16,5,experiment,1,odd,76187,91,76698,,81837,,69258,,69256,90,91,,81837,,82202,,82202,8497,,69258,,70531,,71815,,73100,,74385,,,,,MemorySpan_1,0,14844,30,yes,1024
g,r,y,p,3000,y,r,w,w,500,750,0,0,483,483,black,no,legacy,legacy,legacy,0,letters,uniform,,48,0,6,0,,36,,6,,36,,6,0,0,,36,0,,36,,6,,6,0,,6,,6,,6,,6,,6,,6,,6,,6,,6,Thu Sep 03 2020 10:24:59 GMT+0200 (Centraleuropæisk sommertid),The main experiment item,yes,,/Users/ethan/Documents/GitHub/OpenSesame/MemorySpan,no,mono,no,18,no,white,no,no,768,legacy,legacy,grypyrenter,osweb,1.3.8,enter,enter,,enter,639,8406,,639,2,legacy,1599121486731,1024,2,48000,-16,6,experiment,1,odd,89919,91,90437,,95969,,82230,,82229,90,91,,95969,,96618,,96619,8497,,82230,,83512,,84797,,86091,,87352,,88644,,,MemorySpan_1,0,17873,37,yes,1024
i,m,u,u,3000,e,r,w,w,500,750,0,0,481,481,black,no,legacy,legacy,legacy,0,letters,uniform,,55,0,7,0,,43,,7,,43,,7,0,0,,43,0,,43,,7,,7,0,,7,,7,,7,,7,,7,,7,,7,,7,,7,Thu Sep 03 2020 10:24:59 GMT+0200 (Centraleuropæisk sommertid),The main experiment item,yes,,/Users/ethan/Documents/GitHub/OpenSesame/MemorySpan,no,mono,no,18,no,white,no,no,768,legacy,legacy,imuuerenter,osweb,1.3.8,enter,enter,,enter,729,8406,,729,2,legacy,1599121486731,1024,2,48000,-16,6,experiment,1,odd,104301,91,104820,,110530,,96640,,96640,90,91,,110530,,111284,,111284,8497,,96640,,97911,,99195,,100464,,101732,,103017,,,MemorySpan_1,0,21172,44,yes,1024
v,e,z,g,3000,s,q,l,w,500,750,0,0,520,520,black,no,legacy,legacy,legacy,0,letters,uniform,,62,0,8,0,,51,,8,,51,,8,0,0,,51,0,,51,,8,,8,0,,8,,8,,8,,8,,8,,8,,8,,8,,8,Thu Sep 03 2020 10:24:59 GMT+0200 (Centraleuropæisk sommertid),The main experiment item,yes,,/Users/ethan/Documents/GitHub/OpenSesame/MemorySpan,no,mono,no,18,no,white,no,no,768,legacy,legacy,vezgsqlenter,osweb,1.3.8,enter,enter,,enter,1174,8406,,1174,2,legacy,1599121486731,1024,2,48000,-16,7,experiment,1,odd,119760,91,120269,,128138,,111303,,111303,90,91,,128138,,129328,,129328,8497,,111303,,112577,,113862,,115147,,116415,,117699,,118988,MemorySpan_1,0,27043,52,yes,1024
u,p,t,x,3000,i,p,f,w,500,750,0,0,631,631,black,no,legacy,legacy,legacy,0,letters,uniform,,69,0,9,0,,59,,9,,59,,9,0,0,,59,0,,59,,9,,9,0,,9,,9,,9,,9,,9,,9,,9,,9,,9,Thu Sep 03 2020 10:24:59 GMT+0200 (Centraleuropæisk sommertid),The main experiment item,yes,,/Users/ethan/Documents/GitHub/OpenSesame/MemorySpan,no,mono,no,18,no,white,no,no,768,legacy,legacy,uptvxypenter,osweb,1.3.8,enter,enter,,enter,3177,8406,,3177,2,legacy,1599121486731,1024,2,48000,-16,7,experiment,1,odd,137804,91,138323,,149107,,129347,,129347,90,91,,149107,,152296,,152298,8497,,129347,,130631,,131915,,133208,,134485,,135753,,137038,MemorySpan_1,0,37836,60,yes,1024
3,9,5,w,3000,w,w,w,w,500,750,0,0,625,625,black,no,legacy,legacy,legacy,0,numbers,uniform,,76,0,10,0,3,59,0,9,3,59,0,9,0,0,3,59,0,3,59,0,9,0,9,0,0,9,0,9,0,9,0,9,0,9,0,9,0,9,0,9,0,9,Thu Sep 03 2020 10:24:59 GMT+0200 (Centraleuropæisk sommertid),The main experiment item,yes,,/Users/ethan/Documents/GitHub/OpenSesame/MemorySpan,no,mono,no,18,no,white,no,no,768,legacy,legacy,395enter,osweb,1.3.8,enter,enter,enter,enter,243,8406,243,3177,2,legacy,1599121486731,1024,2,48000,-16,3,experiment,1,odd,157753,91,158261,163243,149107,152361,129347,152360,129347,90,91,163243,149107,163498,152296,163499,152298,8497,152361,129347,153639,130631,154924,131915,,133208,,134485,,135753,,137038,MemorySpan_1,0,39980,64,yes,1024
1,8,3,w,3000,w,w,w,w,500,750,0,0,622,622,black,no,legacy,legacy,legacy,0,numbers,uniform,,83,0,11,0,7,59,1,9,7,59,1,9,0,0,7,59,0,7,59,1,9,1,9,0,1,9,1,9,1,9,1,9,1,9,1,9,1,9,1,9,1,9,Thu Sep 03 2020 10:24:59 GMT+0200 (Centraleuropæisk sommertid),The main experiment item,yes,,/Users/ethan/Documents/GitHub/OpenSesame/MemorySpan,no,mono,no,18,no,white,no,no,768,legacy,legacy,183enter,osweb,1.3.8,enter,enter,enter,enter,198,8406,198,3177,2,legacy,1599121486731,1024,2,48000,-16,3,experiment,1,odd,168905,91,169426,174623,149107,163519,129347,163518,129347,90,91,174623,149107,174838,152296,174838,152298,8497,163518,129347,164802,130631,166069,131915,,133208,,134485,,135753,,137038,MemorySpan_1,0,42275,68,yes,1024
6,5,5,4,3000,w,w,w,w,500,750,0,0,605,605,black,no,legacy,legacy,legacy,0,numbers,uniform,,90,0,12,0,12,59,2,9,12,59,2,9,0,0,12,59,0,12,59,2,9,2,9,0,2,9,2,9,2,9,2,9,2,9,2,9,2,9,2,9,2,9,Thu Sep 03 2020 10:24:59 GMT+0200 (Centraleuropæisk sommertid),The main experiment item,yes,,/Users/ethan/Documents/GitHub/OpenSesame/MemorySpan,no,mono,no,18,no,white,no,no,768,legacy,legacy,6554enter,osweb,1.3.8,enter,enter,enter,enter,334,8406,334,3177,2,legacy,1599121486731,1024,2,48000,-16,4,experiment,1,odd,181019,91,181537,186151,149107,174859,129347,174859,129347,90,91,186151,149107,186491,152296,186491,152298,8497,174859,129347,176130,130631,177415,131915,178700,133208,,134485,,135753,,137038,MemorySpan_1,0,44134,73,yes,1024
5,5,5,1,3000,w,w,w,w,500,750,0,0,592,592,black,no,legacy,legacy,legacy,0,numbers,uniform,,97,0,13,0,17,59,3,9,17,59,3,9,0,0,17,59,0,17,59,3,9,3,9,0,3,9,3,9,3,9,3,9,3,9,3,9,3,9,3,9,3,9,Thu Sep 03 2020 10:24:59 GMT+0200 (Centraleuropæisk sommertid),The main experiment item,yes,,/Users/ethan/Documents/GitHub/OpenSesame/MemorySpan,no,mono,no,18,no,white,no,no,768,legacy,legacy,5551enter,osweb,1.3.8,enter,enter,enter,enter,366,8406,366,3177,2,legacy,1599121486731,1024,2,48000,-16,4,experiment,1,odd,192665,91,193176,197974,149107,186510,129347,186509,129347,90,91,197974,149107,198363,152296,198364,152298,8497,186510,129347,187793,130631,189070,131915,190346,133208,,134485,,135753,,137038,MemorySpan_1,0,46178,78,yes,1024
5,2,4,1,3000,2,w,w,w,500,750,0,0,580,580,black,no,legacy,legacy,legacy,0,numbers,uniform,,104,0,14,0,27,59,4,9,27,59,4,9,0,0,27,59,0,27,59,4,9,4,9,0,4,9,4,9,4,9,4,9,4,9,4,9,4,9,4,9,4,9,Thu Sep 03 2020 10:24:59 GMT+0200 (Centraleuropæisk sommertid),The main experiment item,yes,,/Users/ethan/Documents/GitHub/OpenSesame/MemorySpan,no,mono,no,18,no,white,no,no,768,legacy,legacy,52412enter,osweb,1.3.8,enter,enter,enter,enter,575,8406,575,3177,2,legacy,1599121486731,1024,2,48000,-16,5,experiment,1,odd,205279,91,205802,213258,149107,198383,129347,198383,129347,90,91,213258,149107,213837,152296,213838,152298,8497,198383,129347,199657,130631,200941,131915,202209,133208,203494,134485,,135753,,137038,MemorySpan_1,0,50997,88,yes,1024
2,9,6,4,3000,6,w,w,w,500,750,0,0,576,576,black,no,legacy,legacy,legacy,0,numbers,uniform,,111,0,15,0,33,59,5,9,33,59,5,9,0,0,33,59,0,33,59,5,9,5,9,0,5,9,5,9,5,9,5,9,5,9,5,9,5,9,5,9,5,9,Thu Sep 03 2020 10:24:59 GMT+0200 (Centraleuropæisk sommertid),The main experiment item,yes,,/Users/ethan/Documents/GitHub/OpenSesame/MemorySpan,no,mono,no,18,no,white,no,no,768,legacy,legacy,29646enter,osweb,1.3.8,enter,enter,enter,enter,626,8406,626,3177,2,legacy,1599121486731,1024,2,48000,-16,5,experiment,1,odd,220779,91,221298,226981,149107,213857,129347,213856,129347,90,91,226981,149107,227607,152296,227608,152298,8497,213857,129347,215140,130631,216425,131915,217710,133208,218994,134485,,135753,,137038,MemorySpan_1,0,54179,94,yes,1024
4,3,3,6,3000,4,5,w,w,500,750,0,0,584,584,black,no,legacy,legacy,legacy,0,numbers,uniform,,118,0,16,0,46,59,6,9,46,59,6,9,0,0,46,59,0,46,59,6,9,6,9,0,6,9,6,9,6,9,6,9,6,9,6,9,6,9,6,9,6,9,Thu Sep 03 2020 10:24:59 GMT+0200 (Centraleuropæisk sommertid),The main experiment item,yes,,/Users/ethan/Documents/GitHub/OpenSesame/MemorySpan,no,mono,no,18,no,white,no,no,768,legacy,legacy,433649enter,osweb,1.3.8,enter,enter,enter,enter,601,8406,601,3177,2,legacy,1599121486731,1024,2,48000,-16,6,experiment,1,odd,235329,91,235847,246818,149107,227627,129347,227627,129347,90,91,246818,149107,247426,152296,247426,152298,8497,227627,129347,228905,130631,230190,131915,231485,133208,232760,134485,234044,135753,,137038,MemorySpan_1,0,62461,107,yes,1024
3,1,8,4,3000,4,4,w,w,500,750,0,0,584,584,black,no,legacy,legacy,legacy,0,numbers,uniform,,125,0,17,0,53,59,7,9,53,59,7,9,0,0,53,59,0,53,59,7,9,7,9,0,7,9,7,9,7,9,7,9,7,9,7,9,7,9,7,9,7,9,Thu Sep 03 2020 10:24:59 GMT+0200 (Centraleuropæisk sommertid),The main experiment item,yes,,/Users/ethan/Documents/GitHub/OpenSesame/MemorySpan,no,mono,no,18,no,white,no,no,768,legacy,legacy,316444enter,osweb,1.3.8,enter,enter,enter,enter,534,8406,534,3177,2,legacy,1599121486731,1024,2,48000,-16,6,experiment,1,odd,255134,91,255652,262385,149107,247447,129347,247447,129347,90,91,262386,149107,262934,152296,262935,152298,8497,247447,129347,248711,130631,249995,131915,251280,133208,252565,134485,253849,135753,,137038,MemorySpan_1,0,66590,114,yes,1024
6,3,9,9,3000,6,5,4,w,500,750,0,0,595,595,black,no,legacy,legacy,legacy,0,numbers,uniform,,132,0,18,0,61,59,8,9,61,59,8,9,0,0,61,59,0,61,59,8,9,8,9,0,8,9,8,9,8,9,8,9,8,9,8,9,8,9,8,9,8,9,Thu Sep 03 2020 10:24:59 GMT+0200 (Centraleuropæisk sommertid),The main experiment item,yes,,/Users/ethan/Documents/GitHub/OpenSesame/MemorySpan,no,mono,no,18,no,white,no,no,768,legacy,legacy,6399654enter,osweb,1.3.8,enter,enter,enter,enter,971,8406,971,3177,2,legacy,1599121486731,1024,2,48000,-16,7,experiment,1,odd,271402,91,271931,280081,149107,262953,129347,262953,129347,90,91,280082,149107,281072,152296,281072,152298,8497,262953,129347,264228,130631,265512,131915,266797,133208,268082,134485,269367,135753,270635,137038,MemorySpan_1,0,72549,122,yes,1024
9,6,1,8,3000,5,3,4,w,500,750,0,0,611,611,black,no,legacy,legacy,legacy,0,numbers,uniform,,139,0,19,0,68,59,9,9,68,59,9,9,0,0,68,59,0,68,59,9,9,9,9,0,9,9,9,9,9,9,9,9,9,9,9,9,9,9,9,9,9,9,Thu Sep 03 2020 10:24:59 GMT+0200 (Centraleuropæisk sommertid),The main experiment item,yes,,/Users/ethan/Documents/GitHub/OpenSesame/MemorySpan,no,mono,no,18,no,white,no,no,768,legacy,legacy,698645enter,osweb,1.3.8,enter,enter,enter,enter,1211,8406,1211,3177,2,legacy,1599121486731,1024,2,48000,-16,7,experiment,1,odd,289522,91,290040,298209,149107,281094,129347,281093,129347,90,91,298209,149107,299442,152296,299442,152298,8497,281093,129347,282365,130631,283632,131915,284917,133208,286202,134485,287487,135753,288755,137038,MemorySpan_1,0,78786,129,yes,1024
v,j,y,w,3000,w,w,w,w,500,750,0,0,839,839,black,no,legacy,legacy,legacy,0,letters,uniform,,6,0,0,0,,3,,0,,3,,0,0,0,,3,0,,3,,0,,0,0,,0,,0,,0,,0,,0,,0,,0,,0,,0,Thu Sep 03 2020 10:25:03 GMT+0200 (Centraleuropæisk sommertid),The main experiment item,yes,,/Users/ethan/Documents/GitHub/OpenSesame/MemorySpan,no,mono,no,18,no,white,no,no,768,legacy,legacy,vjyenter,osweb,1.3.8,enter,space,,enter,1340,13855,,1340,2,legacy,1599121488133,1024,2,48000,-16,3,experiment,0,even,19234,33,19742,,24826,,13930,,13928,33,33,,24826,,26173,,26174,13899,,13929,,15188,,16441,,,,,,,,,MemorySpan_1,0,3355,4,yes,1024
z,v,y,w,3000,w,w,w,w,500,750,0,0,807,807,black,no,legacy,legacy,legacy,0,letters,uniform,,13,0,1,0,,7,,1,,7,,1,0,0,,7,0,,7,,1,,1,0,,1,,1,,1,,1,,1,,1,,1,,1,,1,Thu Sep 03 2020 10:25:03 GMT+0200 (Centraleuropæisk sommertid),The main experiment item,yes,,/Users/ethan/Documents/GitHub/OpenSesame/MemorySpan,no,mono,no,18,no,white,no,no,768,legacy,legacy,zvyenter,osweb,1.3.8,enter,space,,enter,1023,13855,,1023,2,legacy,1599121488133,1024,2,48000,-16,3,experiment,0,even,31524,33,32026,,37166,,26196,,26196,33,33,,37166,,38196,,38197,13899,,26196,,27462,,28733,,,,,,,,,MemorySpan_1,0,6454,8,yes,1024
z,x,m,y,3000,w,w,w,w,500,750,0,0,756,756,black,no,legacy,legacy,legacy,0,letters,uniform,,20,0,2,0,,12,,2,,12,,2,0,0,,12,0,,12,,2,,2,0,,2,,2,,2,,2,,2,,2,,2,,2,,2,Thu Sep 03 2020 10:25:03 GMT+0200 (Centraleuropæisk sommertid),The main experiment item,yes,,/Users/ethan/Documents/GitHub/OpenSesame/MemorySpan,no,mono,no,18,no,white,no,no,768,legacy,legacy,zxmyenter,osweb,1.3.8,enter,space,,enter,1432,13855,,1432,2,legacy,1599121488133,1024,2,48000,-16,4,experiment,0,even,44282,33,44801,,49806,,38217,,38216,33,33,,49806,,51255,,51256,13899,,38217,,39484,,40737,,42009,,,,,,,MemorySpan_1,0,9828,13,yes,1024
t,q,t,f,3000,w,w,w,w,500,750,0,0,761,761,black,no,legacy,legacy,legacy,0,letters,uniform,,27,0,3,0,,17,,3,,17,,3,0,0,,17,0,,17,,3,,3,0,,3,,3,,3,,3,,3,,3,,3,,3,,3,Thu Sep 03 2020 10:25:03 GMT+0200 (Centraleuropæisk sommertid),The main experiment item,yes,,/Users/ethan/Documents/GitHub/OpenSesame/MemorySpan,no,mono,no,18,no,white,no,no,768,legacy,legacy,tqtfenter,osweb,1.3.8,enter,space,,enter,1409,13855,,1409,2,legacy,1599121488133,1024,2,48000,-16,4,experiment,0,even,57341,33,57860,,63401,,51276,,51276,33,33,,63401,,64815,,64815,13899,,51276,,52542,,53797,,55051,,,,,,,MemorySpan_1,0,13693,18,yes,1024
d,y,v,f,3000,x,w,w,w,500,750,0,0,726,726,black,no,legacy,legacy,legacy,0,letters,uniform,,34,0,4,0,,23,,4,,23,,4,0,0,,23,0,,23,,4,,4,0,,4,,4,,4,,4,,4,,4,,4,,4,,4,Thu Sep 03 2020 10:25:03 GMT+0200 (Centraleuropæisk sommertid),The main experiment item,yes,,/Users/ethan/Documents/GitHub/OpenSesame/MemorySpan,no,mono,no,18,no,white,no,no,768,legacy,legacy,dyvfxenter,osweb,1.3.8,enter,space,,enter,1177,13855,,1177,2,legacy,1599121488133,1024,2,48000,-16,5,experiment,0,even,71622,33,72141,,77763,,64837,,64837,33,33,,77763,,78944,,78945,13899,,64837,,66104,,67358,,68611,,69867,,,,,MemorySpan_1,0,17418,24,yes,1024
i,m,v,t,3000,k,w,w,w,500,750,0,0,735,735,black,no,legacy,legacy,legacy,0,letters,uniform,,41,0,5,0,,29,,5,,29,,5,0,0,,29,0,,29,,5,,5,0,,5,,5,,5,,5,,5,,5,,5,,5,,5,Thu Sep 03 2020 10:25:03 GMT+0200 (Centraleuropæisk sommertid),The main experiment item,yes,,/Users/ethan/Documents/GitHub/OpenSesame/MemorySpan,no,mono,no,18,no,white,no,no,768,legacy,legacy,imvtkenter,osweb,1.3.8,enter,space,,enter,1244,13855,,1244,2,legacy,1599121488133,1024,2,48000,-16,5,experiment,0,even,85768,33,86270,,92764,,78966,,78965,33,33,,92764,,94011,,94012,13899,,78966,,80234,,81504,,82757,,84012,,,,,MemorySpan_1,0,22050,30,yes,1024
g,r,y,p,3000,y,r,w,w,500,750,0,0,703,703,black,no,legacy,legacy,legacy,0,letters,uniform,,48,0,6,0,,36,,6,,36,,6,0,0,,36,0,,36,,6,,6,0,,6,,6,,6,,6,,6,,6,,6,,6,,6,Thu Sep 03 2020 10:25:03 GMT+0200 (Centraleuropæisk sommertid),The main experiment item,yes,,/Users/ethan/Documents/GitHub/OpenSesame/MemorySpan,no,mono,no,18,no,white,no,no,768,legacy,legacy,grypyrenter,osweb,1.3.8,enter,space,,enter,1285,13855,,1285,2,legacy,1599121488133,1024,2,48000,-16,6,experiment,0,even,101586,33,102105,,107877,,94032,,94031,33,33,,107877,,109176,,109176,13899,,94032,,95315,,96569,,97823,,99077,,100330,,,MemorySpan_1,0,25994,37,yes,1024
i,m,u,u,3000,e,r,w,w,500,750,0,0,700,700,black,no,legacy,legacy,legacy,0,letters,uniform,,55,0,7,0,,43,,7,,43,,7,0,0,,43,0,,43,,7,,7,0,,7,,7,,7,,7,,7,,7,,7,,7,,7,Thu Sep 03 2020 10:25:03 GMT+0200 (Centraleuropæisk sommertid),The main experiment item,yes,,/Users/ethan/Documents/GitHub/OpenSesame/MemorySpan,no,mono,no,18,no,white,no,no,768,legacy,legacy,imuuerenter,osweb,1.3.8,enter,space,,enter,676,13855,,676,2,legacy,1599121488133,1024,2,48000,-16,6,experiment,0,even,116752,33,117271,,124483,,109199,,109198,33,33,,124483,,125162,,125162,13899,,109199,,110465,,111719,,112974,,114243,,115498,,,MemorySpan_1,0,30786,44,yes,1024
v,e,z,g,3000,s,q,l,w,500,750,0,0,753,753,black,no,legacy,legacy,legacy,0,letters,uniform,,62,0,8,0,,51,,8,,51,,8,0,0,,51,0,,51,,8,,8,0,,8,,8,,8,,8,,8,,8,,8,,8,,8,Thu Sep 03 2020 10:25:03 GMT+0200 (Centraleuropæisk sommertid),The main experiment item,yes,,/Users/ethan/Documents/GitHub/OpenSesame/MemorySpan,no,mono,no,18,no,white,no,no,768,legacy,legacy,vezgsqlenter,osweb,1.3.8,enter,space,,enter,4582,13855,,4582,2,legacy,1599121488133,1024,2,48000,-16,7,experiment,0,even,133490,33,133992,,140918,,125182,,125182,33,33,,140918,,145510,,145512,13899,,125182,,126451,,127720,,128974,,130228,,131482,,132737,MemorySpan_1,0,39177,52,yes,1024
u,p,t,x,3000,i,p,f,w,500,750,0,0,720,720,black,no,legacy,legacy,legacy,0,letters,uniform,,69,0,9,0,,59,,9,,59,,9,0,0,,59,0,,59,,9,,9,0,,9,,9,,9,,9,,9,,9,,9,,9,,9,Thu Sep 03 2020 10:25:03 GMT+0200 (Centraleuropæisk sommertid),The main experiment item,yes,,/Users/ethan/Documents/GitHub/OpenSesame/MemorySpan,no,mono,no,18,no,white,no,no,768,legacy,legacy,uptxipfenter,osweb,1.3.8,enter,space,,enter,1433,13855,,1433,2,legacy,1599121488133,1024,2,48000,-16,7,experiment,0,even,153840,33,154358,,160065,,145535,,145534,33,33,,160065,,161513,,161514,13899,,145535,,146800,,148053,,149307,,150561,,151815,,153086,MemorySpan_1,0,43210,60,yes,1024
3,9,5,w,3000,w,w,w,w,500,750,0,0,744,744,black,no,legacy,legacy,legacy,0,numbers,uniform,,76,0,10,0,3,59,0,9,3,59,0,9,0,0,3,59,0,3,59,0,9,0,9,0,0,9,0,9,0,9,0,9,0,9,0,9,0,9,0,9,0,9,Thu Sep 03 2020 10:25:03 GMT+0200 (Centraleuropæisk sommertid),The main experiment item,yes,,/Users/ethan/Documents/GitHub/OpenSesame/MemorySpan,no,mono,no,18,no,white,no,no,768,legacy,legacy,395enter,osweb,1.3.8,enter,space,enter,enter,2617,13855,2617,1433,2,legacy,1599121488133,1024,2,48000,-16,3,experiment,0,even,166849,33,167366,172220,160065,161534,145535,161534,145534,33,33,172220,160065,174840,161513,174841,161514,13899,161534,145535,162802,146800,164056,148053,,149307,,150561,,151815,,153086,MemorySpan_1,0,47628,64,yes,1024
1,8,3,w,3000,w,w,w,w,500,750,0,0,741,741,black,no,legacy,legacy,legacy,0,numbers,uniform,,83,0,11,0,7,59,1,9,7,59,1,9,0,0,7,59,0,7,59,1,9,1,9,0,1,9,1,9,1,9,1,9,1,9,1,9,1,9,1,9,1,9,Thu Sep 03 2020 10:25:03 GMT+0200 (Centraleuropæisk sommertid),The main experiment item,yes,,/Users/ethan/Documents/GitHub/OpenSesame/MemorySpan,no,mono,no,18,no,white,no,no,768,legacy,legacy,183enter,osweb,1.3.8,enter,space,enter,enter,758,13855,758,1433,2,legacy,1599121488133,1024,2,48000,-16,3,experiment,0,even,180142,33,180644,185732,160065,174861,145535,174860,145534,33,33,185732,160065,186494,161513,186494,161514,13899,174861,145535,176128,146800,177382,148053,,149307,,150561,,151815,,153086,MemorySpan_1,0,50418,68,yes,1024
6,5,5,4,3000,w,w,w,w,500,750,0,0,749,749,black,no,legacy,legacy,legacy,0,numbers,uniform,,90,0,12,0,12,59,2,9,12,59,2,9,0,0,12,59,0,12,59,2,9,2,9,0,2,9,2,9,2,9,2,9,2,9,2,9,2,9,2,9,2,9,Thu Sep 03 2020 10:25:03 GMT+0200 (Centraleuropæisk sommertid),The main experiment item,yes,,/Users/ethan/Documents/GitHub/OpenSesame/MemorySpan,no,mono,no,18,no,white,no,no,768,legacy,legacy,6554enter,osweb,1.3.8,enter,space,enter,enter,3009,13855,3009,1433,2,legacy,1599121488133,1024,2,48000,-16,4,experiment,0,even,192565,33,193067,197370,160065,186515,145535,186515,145534,33,33,197370,160065,200390,161513,200391,161514,13899,186515,145535,187784,146800,189036,148053,190308,149307,,150561,,151815,,153086,MemorySpan_1,0,54646,73,yes,1024
5,5,5,1,3000,w,w,w,w,500,750,0,0,735,735,black,no,legacy,legacy,legacy,0,numbers,uniform,,97,0,13,0,17,59,3,9,17,59,3,9,0,0,17,59,0,17,59,3,9,3,9,0,3,9,3,9,3,9,3,9,3,9,3,9,3,9,3,9,3,9,Thu Sep 03 2020 10:25:03 GMT+0200 (Centraleuropæisk sommertid),The main experiment item,yes,,/Users/ethan/Documents/GitHub/OpenSesame/MemorySpan,no,mono,no,18,no,white,no,no,768,legacy,legacy,5551enter,osweb,1.3.8,enter,space,enter,enter,877,13855,877,1433,2,legacy,1599121488133,1024,2,48000,-16,4,experiment,0,even,206478,33,206996,211836,160065,200413,145535,200412,145534,33,33,211836,160065,212715,161513,212715,161514,13899,200413,145535,201678,146800,202949,148053,204203,149307,,150561,,151815,,153086,MemorySpan_1,0,57301,78,yes,1024
5,2,4,1,3000,2,w,w,w,500,750,0,0,708,708,black,no,legacy,legacy,legacy,0,numbers,uniform,,104,0,14,0,23,59,4,9,23,59,4,9,0,0,23,59,0,23,59,4,9,4,9,0,4,9,4,9,4,9,4,9,4,9,4,9,4,9,4,9,4,9,Thu Sep 03 2020 10:25:03 GMT+0200 (Centraleuropæisk sommertid),The main experiment item,yes,,/Users/ethan/Documents/GitHub/OpenSesame/MemorySpan,no,mono,no,18,no,white,no,no,768,legacy,legacy,52412enter,osweb,1.3.8,enter,space,enter,enter,753,13855,753,1433,2,legacy,1599121488133,1024,2,48000,-16,5,experiment,0,even,219552,33,220058,224575,160065,212735,145535,212735,145534,33,33,224575,160065,225338,161513,225338,161514,13899,212735,145535,214001,146800,215255,148053,216511,149307,217797,150561,,151815,,153086,MemorySpan_1,0,59506,84,yes,1024
2,9,6,4,3000,6,w,w,w,500,750,0,0,701,701,black,no,legacy,legacy,legacy,0,numbers,uniform,,111,0,15,0,29,59,5,9,29,59,5,9,0,0,29,59,0,29,59,5,9,5,9,0,5,9,5,9,5,9,5,9,5,9,5,9,5,9,5,9,5,9,Thu Sep 03 2020 10:25:03 GMT+0200 (Centraleuropæisk sommertid),The main experiment item,yes,,/Users/ethan/Documents/GitHub/OpenSesame/MemorySpan,no,mono,no,18,no,white,no,no,768,legacy,legacy,29646enter,osweb,1.3.8,enter,space,enter,enter,1596,13855,1596,1433,2,legacy,1599121488133,1024,2,48000,-16,5,experiment,0,even,232161,33,232681,237801,160065,225358,145535,225357,145534,33,33,237801,160065,239401,161513,239401,161514,13899,225358,145535,226627,146800,227881,148053,229135,149307,230406,150561,,151815,,153086,MemorySpan_1,0,63121,90,yes,1024
4,3,3,6,3000,4,5,w,w,500,750,0,0,689,689,black,no,legacy,legacy,legacy,0,numbers,uniform,,118,0,16,0,36,59,6,9,36,59,6,9,0,0,36,59,0,36,59,6,9,6,9,0,6,9,6,9,6,9,6,9,6,9,6,9,6,9,6,9,6,9,Thu Sep 03 2020 10:25:03 GMT+0200 (Centraleuropæisk sommertid),The main experiment item,yes,,/Users/ethan/Documents/GitHub/OpenSesame/MemorySpan,no,mono,no,18,no,white,no,no,768,legacy,legacy,433645enter,osweb,1.3.8,enter,space,enter,enter,995,13855,995,1433,2,legacy,1599121488133,1024,2,48000,-16,6,experiment,0,even,246975,33,247477,253319,160065,239421,145535,239420,145534,33,33,253319,160065,254315,161513,254316,161514,13899,239421,145535,240689,146800,241959,148053,243213,149307,244467,150561,245721,151815,,153086,MemorySpan_1,0,66848,97,yes,1024
3,1,8,4,3000,4,4,w,w,500,750,0,0,678,678,black,no,legacy,legacy,legacy,0,numbers,uniform,,125,0,17,0,43,59,7,9,43,59,7,9,0,0,43,59,0,43,59,7,9,7,9,0,7,9,7,9,7,9,7,9,7,9,7,9,7,9,7,9,7,9,Thu Sep 03 2020 10:25:03 GMT+0200 (Centraleuropæisk sommertid),The main experiment item,yes,,/Users/ethan/Documents/GitHub/OpenSesame/MemorySpan,no,mono,no,18,no,white,no,no,768,legacy,legacy,318444enter,osweb,1.3.8,enter,space,enter,enter,1324,13855,1324,1433,2,legacy,1599121488133,1024,2,48000,-16,6,experiment,0,even,261890,33,262394,267832,160065,254337,145535,254336,145534,33,33,267833,160065,269164,161513,269165,161514,13899,254337,145535,255603,146800,256857,148053,258112,149307,259367,150561,260637,151815,,153086,MemorySpan_1,0,70499,104,yes,1024
6,3,9,9,3000,6,5,4,w,500,750,0,0,679,679,black,no,legacy,legacy,legacy,0,numbers,uniform,,132,0,18,0,51,59,8,9,51,59,8,9,0,0,51,59,0,51,59,8,9,8,9,0,8,9,8,9,8,9,8,9,8,9,8,9,8,9,8,9,8,9,Thu Sep 03 2020 10:25:03 GMT+0200 (Centraleuropæisk sommertid),The main experiment item,yes,,/Users/ethan/Documents/GitHub/OpenSesame/MemorySpan,no,mono,no,18,no,white,no,no,768,legacy,legacy,6399654enter,osweb,1.3.8,enter,space,enter,enter,2750,13855,2750,1433,2,legacy,1599121488133,1024,2,48000,-16,7,experiment,0,even,277508,33,278010,283936,160065,269184,145535,269183,145534,33,33,283936,160065,286687,161513,286687,161514,13899,269184,145535,270470,146800,271724,148053,272994,149307,274249,150561,275501,151815,276756,153086,MemorySpan_1,0,76041,112,yes,1024
9,6,1,8,3000,5,3,4,w,500,750,0,0,672,672,black,no,legacy,legacy,legacy,0,numbers,uniform,,139,0,19,0,59,59,9,9,59,59,9,9,0,0,59,59,0,59,59,9,9,9,9,0,9,9,9,9,9,9,9,9,9,9,9,9,9,9,9,9,9,9,Thu Sep 03 2020 10:25:03 GMT+0200 (Centraleuropæisk sommertid),The main experiment item,yes,,/Users/ethan/Documents/GitHub/OpenSesame/MemorySpan,no,mono,no,18,no,white,no,no,768,legacy,legacy,9618534enter,osweb,1.3.8,enter,space,enter,enter,1631,13855,1631,1433,2,legacy,1599121488133,1024,2,48000,-16,7,experiment,0,even,295016,33,295536,301595,160065,286707,145535,286706,145534,33,33,301595,160065,303241,161513,303242,161514,13899,286707,145535,287975,146800,289231,148053,290485,149307,291755,150561,293010,151815,294263,153086,MemorySpan_1,0,80600,120,yes,1024
v,j,y,w,3000,w,w,w,w,500,750,0,0,1211,1211,black,no,legacy,legacy,legacy,0,letters,uniform,,6,0,0,0,,3,,0,,3,,0,0,0,,3,0,,3,,0,,0,0,,0,,0,,0,,0,,0,,0,,0,,0,,0,Thu Sep 03 2020 10:23:34 GMT+0200 (Centraleuropæisk sommertid),The main experiment item,yes,,/Users/ethan/Documents/GitHub/OpenSesame/MemorySpan,no,mono,no,18,no,white,no,no,768,legacy,legacy,vjyenter,osweb,1.3.8,enter,space,,enter,887,90657,,887,2,legacy,1599121409498,1024,2,48000,-16,3,experiment,0,even,96119,36,96641,,103648,,90735,,90734,35,36,,103648,,104543,,104544,90705,,90735,,92008,,93289,,,,,,,,,MemorySpan_1,0,4843,4,yes,1024
z,v,y,w,3000,w,w,w,w,500,750,0,0,790,790,black,no,legacy,legacy,legacy,0,letters,uniform,,13,0,1,0,,7,,1,,7,,1,0,0,,7,0,,7,,1,,1,0,,1,,1,,1,,1,,1,,1,,1,,1,,1,Thu Sep 03 2020 10:23:34 GMT+0200 (Centraleuropæisk sommertid),The main experiment item,yes,,/Users/ethan/Documents/GitHub/OpenSesame/MemorySpan,no,mono,no,18,no,white,no,no,768,legacy,legacy,zvyenter,osweb,1.3.8,enter,space,,enter,310,90657,,310,2,legacy,1599121409498,1024,2,48000,-16,3,experiment,0,even,109952,36,110468,,114704,,104566,,104566,35,36,,114704,,115028,,115029,90705,,104566,,105841,,107122,,,,,,,,,MemorySpan_1,0,6320,8,yes,1024
z,x,m,y,3000,w,w,w,w,500,750,0,0,659,659,black,no,legacy,legacy,legacy,0,letters,uniform,,20,0,2,0,,12,,2,,12,,2,0,0,,12,0,,12,,2,,2,0,,2,,2,,2,,2,,2,,2,,2,,2,,2,Thu Sep 03 2020 10:23:34 GMT+0200 (Centraleuropæisk sommertid),The main experiment item,yes,,/Users/ethan/Documents/GitHub/OpenSesame/MemorySpan,no,mono,no,18,no,white,no,no,768,legacy,legacy,zxmyenter,osweb,1.3.8,enter,space,,enter,277,90657,,277,2,legacy,1599121409498,1024,2,48000,-16,4,experiment,0,even,121189,36,121704,,126754,,115048,,115048,35,36,,126754,,127031,,127032,90705,,115048,,116328,,117609,,118891,,,,,,,MemorySpan_1,0,8563,13,yes,1024
t,q,t,f,3000,w,w,w,w,500,750,0,0,620,620,black,no,legacy,legacy,legacy,0,letters,uniform,,27,0,3,0,,17,,3,,17,,3,0,0,,17,0,,17,,3,,3,0,,3,,3,,3,,3,,3,,3,,3,,3,,3,Thu Sep 03 2020 10:23:34 GMT+0200 (Centraleuropæisk sommertid),The main experiment item,yes,,/Users/ethan/Documents/GitHub/OpenSesame/MemorySpan,no,mono,no,18,no,white,no,no,768,legacy,legacy,tqtfenter,osweb,1.3.8,enter,space,,enter,452,90657,,452,2,legacy,1599121409498,1024,2,48000,-16,4,experiment,0,even,133208,36,133723,,138956,,127052,,127052,35,36,,138956,,139416,,139416,90705,,127052,,128329,,129612,,130893,,,,,,,MemorySpan_1,0,11165,18,yes,1024
d,y,v,f,3000,x,w,w,w,500,750,0,0,613,613,black,no,legacy,legacy,legacy,0,letters,uniform,,34,0,4,0,,23,,4,,23,,4,0,0,,23,0,,23,,4,,4,0,,4,,4,,4,,4,,4,,4,,4,,4,,4,Thu Sep 03 2020 10:23:34 GMT+0200 (Centraleuropæisk sommertid),The main experiment item,yes,,/Users/ethan/Documents/GitHub/OpenSesame/MemorySpan,no,mono,no,18,no,white,no,no,768,legacy,legacy,dyvfxenter,osweb,1.3.8,enter,space,,enter,431,90657,,431,2,legacy,1599121409498,1024,2,48000,-16,5,experiment,0,even,146357,36,146874,,153072,,139436,,139435,35,36,,153072,,153515,,153515,90705,,139436,,140715,,141996,,143278,,144560,,,,,MemorySpan_1,0,14700,24,yes,1024
i,m,v,t,3000,k,w,w,w,500,750,0,0,574,574,black,no,legacy,legacy,legacy,0,letters,uniform,,41,0,5,0,,29,,5,,29,,5,0,0,,29,0,,29,,5,,5,0,,5,,5,,5,,5,,5,,5,,5,,5,,5,Thu Sep 03 2020 10:23:34 GMT+0200 (Centraleuropæisk sommertid),The main experiment item,yes,,/Users/ethan/Documents/GitHub/OpenSesame/MemorySpan,no,mono,no,18,no,white,no,no,768,legacy,legacy,imvtkenter,osweb,1.3.8,enter,space,,enter,455,90657,,455,2,legacy,1599121409498,1024,2,48000,-16,5,experiment,0,even,160457,36,160973,,166156,,153536,,153535,35,36,,166156,,166616,,166616,90705,,153536,,154814,,156096,,157379,,158660,,,,,MemorySpan_1,0,17234,30,yes,1024
g,r,y,p,3000,y,r,w,w,500,750,0,0,558,558,black,no,legacy,legacy,legacy,0,letters,uniform,,48,0,6,0,,36,,6,,36,,6,0,0,,36,0,,36,,6,,6,0,,6,,6,,6,,6,,6,,6,,6,,6,,6,Thu Sep 03 2020 10:23:34 GMT+0200 (Centraleuropæisk sommertid),The main experiment item,yes,,/Users/ethan/Documents/GitHub/OpenSesame/MemorySpan,no,mono,no,18,no,white,no,no,768,legacy,legacy,grypyrenter,osweb,1.3.8,enter,space,,enter,850,90657,,850,2,legacy,1599121409498,1024,2,48000,-16,6,experiment,0,even,174324,36,174840,,180539,,166638,,166637,35,36,,180539,,181398,,181399,90705,,166638,,167916,,169197,,170478,,171761,,173042,,,MemorySpan_1,0,20663,37,yes,1024
i,m,u,u,3000,e,r,w,w,500,750,0,0,547,547,black,no,legacy,legacy,legacy,0,letters,uniform,,55,0,7,0,,43,,7,,43,,7,0,0,,43,0,,43,,7,,7,0,,7,,7,,7,,7,,7,,7,,7,,7,,7,Thu Sep 03 2020 10:23:34 GMT+0200 (Centraleuropæisk sommertid),The main experiment item,yes,,/Users/ethan/Documents/GitHub/OpenSesame/MemorySpan,no,mono,no,18,no,white,no,no,768,legacy,legacy,imuuerenter,osweb,1.3.8,enter,space,,enter,834,90657,,834,2,legacy,1599121409498,1024,2,48000,-16,6,experiment,0,even,189106,36,189623,,195304,,181420,,181419,35,36,,195304,,196147,,196148,90705,,181420,,182697,,183978,,185261,,186542,,187824,,,MemorySpan_1,0,24060,44,yes,1024
v,e,z,g,3000,s,q,l,w,500,750,0,0,737,737,black,no,legacy,legacy,legacy,0,letters,uniform,,62,0,8,0,,54,,8,,54,,8,0,0,,54,0,,54,,8,,8,0,,8,,8,,8,,8,,8,,8,,8,,8,,8,Thu Sep 03 2020 10:23:34 GMT+0200 (Centraleuropæisk sommertid),The main experiment item,yes,,/Users/ethan/Documents/GitHub/OpenSesame/MemorySpan,no,mono,no,18,no,white,no,no,768,legacy,legacy,vezqx1enter,osweb,1.3.8,enter,space,,enter,448,90657,,448,2,legacy,1599121409498,1024,2,48000,-16,7,experiment,0,even,204620,36,205137,,224310,,196167,,196166,35,36,,224310,,224762,,224762,90705,,196167,,197445,,198727,,200009,,201291,,202573,,203854,MemorySpan_1,0,40536,55,yes,1024
u,p,t,x,3000,i,p,f,w,500,750,0,0,701,701,black,no,legacy,legacy,legacy,0,letters,uniform,,69,0,9,0,,76,,9,,76,,9,0,0,,76,0,,76,,9,,9,0,,9,,9,,9,,9,,9,,9,,9,,9,,9,Thu Sep 03 2020 10:23:34 GMT+0200 (Centraleuropæisk sommertid),The main experiment item,yes,,/Users/ethan/Documents/GitHub/OpenSesame/MemorySpan,no,mono,no,18,no,white,no,no,768,legacy,legacy,uptxvifenter,osweb,1.3.8,enter,space,,enter,358,90657,,358,2,legacy,1599121409498,1024,2,48000,-16,7,experiment,0,even,233235,36,233751,,250137,,224782,,224782,35,36,,250137,,250497,,250497,90705,,224782,,226060,,227343,,228624,,229906,,231188,,232470,MemorySpan_1,0,53961,77,yes,1024
3,9,5,w,3000,w,w,w,w,500,750,0,0,689,689,black,no,legacy,legacy,legacy,0,numbers,uniform,,76,0,10,0,3,76,0,9,3,76,0,9,0,0,3,76,0,3,76,0,9,0,9,0,0,9,0,9,0,9,0,9,0,9,0,9,0,9,0,9,0,9,Thu Sep 03 2020 10:23:34 GMT+0200 (Centraleuropæisk sommertid),The main experiment item,yes,,/Users/ethan/Documents/GitHub/OpenSesame/MemorySpan,no,mono,no,18,no,white,no,no,768,legacy,legacy,395enter,osweb,1.3.8,enter,space,enter,enter,470,90657,470,358,2,legacy,1599121409498,1024,2,48000,-16,3,experiment,0,even,255891,36,256409,260840,250137,250519,224782,250518,224782,35,36,260840,250137,261317,250497,261318,250497,90705,250519,224782,251796,226060,253077,227343,,228624,,229906,,231188,,232470,MemorySpan_1,0,55812,81,yes,1024
1,8,3,w,3000,w,w,w,w,500,750,0,0,676,676,black,no,legacy,legacy,legacy,0,numbers,uniform,,83,0,11,0,7,76,1,9,7,76,1,9,0,0,7,76,0,7,76,1,9,1,9,0,1,9,1,9,1,9,1,9,1,9,1,9,1,9,1,9,1,9,Thu Sep 03 2020 10:23:34 GMT+0200 (Centraleuropæisk sommertid),The main experiment item,yes,,/Users/ethan/Documents/GitHub/OpenSesame/MemorySpan,no,mono,no,18,no,white,no,no,768,legacy,legacy,183enter,osweb,1.3.8,enter,space,enter,enter,498,90657,498,358,2,legacy,1599121409498,1024,2,48000,-16,3,experiment,0,even,266727,36,267245,271427,250137,261339,224782,261338,224782,35,36,271427,250137,271937,250497,271937,250497,90705,261339,224782,262617,226060,263898,227343,,228624,,229906,,231188,,232470,MemorySpan_1,0,57439,85,yes,1024
6,5,5,4,3000,w,w,w,w,500,750,0,0,671,671,black,no,legacy,legacy,legacy,0,numbers,uniform,,90,0,12,0,12,76,2,9,12,76,2,9,0,0,12,76,0,12,76,2,9,2,9,0,2,9,2,9,2,9,2,9,2,9,2,9,2,9,2,9,2,9,Thu Sep 03 2020 10:23:34 GMT+0200 (Centraleuropæisk sommertid),The main experiment item,yes,,/Users/ethan/Documents/GitHub/OpenSesame/MemorySpan,no,mono,no,18,no,white,no,no,768,legacy,legacy,6554enter,osweb,1.3.8,enter,space,enter,enter,1053,90657,1053,358,2,legacy,1599121409498,1024,2,48000,-16,4,experiment,0,even,278113,36,278630,283546,250137,271956,224782,271956,224782,35,36,283546,250137,284606,250497,284606,250497,90705,271956,224782,273237,226060,274518,227343,275800,228624,,229906,,231188,,232470,MemorySpan_1,0,60360,90,yes,1024
5,5,5,1,3000,w,w,w,w,500,750,0,0,656,656,black,no,legacy,legacy,legacy,0,numbers,uniform,,97,0,13,0,17,76,3,9,17,76,3,9,0,0,17,76,0,17,76,3,9,3,9,0,3,9,3,9,3,9,3,9,3,9,3,9,3,9,3,9,3,9,Thu Sep 03 2020 10:23:34 GMT+0200 (Centraleuropæisk sommertid),The main experiment item,yes,,/Users/ethan/Documents/GitHub/OpenSesame/MemorySpan,no,mono,no,18,no,white,no,no,768,legacy,legacy,5551enter,osweb,1.3.8,enter,space,enter,enter,574,90657,574,358,2,legacy,1599121409498,1024,2,48000,-16,4,experiment,0,even,290782,36,291299,295731,250137,284625,224782,284625,224782,35,36,295731,250137,296308,250497,296309,250497,90705,284625,224782,285904,226060,287186,227343,288468,228624,,229906,,231188,,232470,MemorySpan_1,0,62306,95,yes,1024
5,2,4,1,3000,2,w,w,w,500,750,0,0,649,649,black,no,legacy,legacy,legacy,0,numbers,uniform,,104,0,14,0,23,76,4,9,23,76,4,9,0,0,23,76,0,23,76,4,9,4,9,0,4,9,4,9,4,9,4,9,4,9,4,9,4,9,4,9,4,9,Thu Sep 03 2020 10:23:34 GMT+0200 (Centraleuropæisk sommertid),The main experiment item,yes,,/Users/ethan/Documents/GitHub/OpenSesame/MemorySpan,no,mono,no,18,no,white,no,no,768,legacy,legacy,52412enter,osweb,1.3.8,enter,space,enter,enter,1297,90657,1297,358,2,legacy,1599121409498,1024,2,48000,-16,5,experiment,0,even,303250,36,303768,308853,250137,296331,224782,296330,224782,35,36,308853,250137,310158,250497,310158,250497,90705,296330,224782,297606,226060,298889,227343,300171,228624,301452,229906,,231188,,232470,MemorySpan_1,0,65599,101,yes,1024
2,9,6,4,3000,6,w,w,w,500,750,0,0,659,659,black,no,legacy,legacy,legacy,0,numbers,uniform,,111,0,15,0,29,76,5,9,29,76,5,9,0,0,29,76,0,29,76,5,9,5,9,0,5,9,5,9,5,9,5,9,5,9,5,9,5,9,5,9,5,9,Thu Sep 03 2020 10:23:34 GMT+0200 (Centraleuropæisk sommertid),The main experiment item,yes,,/Users/ethan/Documents/GitHub/OpenSesame/MemorySpan,no,mono,no,18,no,white,no,no,768,legacy,legacy,29646enter,osweb,1.3.8,enter,space,enter,enter,2112,90657,2112,358,2,legacy,1599121409498,1024,2,48000,-16,5,experiment,0,even,317100,36,317615,323565,250137,310181,224782,310181,224782,35,36,323565,250137,325690,250497,325690,250497,90705,310181,224782,311457,226060,312738,227343,314021,228624,315302,229906,,231188,,232470,MemorySpan_1,0,70541,107,yes,1024
4,3,3,6,3000,4,5,w,w,500,750,0,0,642,642,black,no,legacy,legacy,legacy,0,numbers,uniform,,118,0,16,0,36,76,6,9,36,76,6,9,0,0,36,76,0,36,76,6,9,6,9,0,6,9,6,9,6,9,6,9,6,9,6,9,6,9,6,9,6,9,Thu Sep 03 2020 10:23:34 GMT+0200 (Centraleuropæisk sommertid),The main experiment item,yes,,/Users/ethan/Documents/GitHub/OpenSesame/MemorySpan,no,mono,no,18,no,white,no,no,768,legacy,legacy,433645enter,osweb,1.3.8,enter,space,enter,enter,492,90657,492,358,2,legacy,1599121409498,1024,2,48000,-16,6,experiment,0,even,333396,36,333898,339131,250137,325735,224782,325734,224782,35,36,339131,250137,339638,250497,339639,250497,90705,325735,224782,326989,226060,328270,227343,329552,228624,330833,229906,332116,231188,,232470,MemorySpan_1,0,73141,114,yes,1024
3,1,8,4,3000,4,4,w,w,500,750,0,0,627,627,black,no,legacy,legacy,legacy,0,numbers,uniform,,125,0,17,0,43,76,7,9,43,76,7,9,0,0,43,76,0,43,76,7,9,7,9,0,7,9,7,9,7,9,7,9,7,9,7,9,7,9,7,9,7,9,Thu Sep 03 2020 10:23:34 GMT+0200 (Centraleuropæisk sommertid),The main experiment item,yes,,/Users/ethan/Documents/GitHub/OpenSesame/MemorySpan,no,mono,no,18,no,white,no,no,768,legacy,legacy,318444enter,osweb,1.3.8,enter,space,enter,enter,360,90657,360,358,2,legacy,1599121409498,1024,2,48000,-16,6,experiment,0,even,347346,36,347863,353361,250137,339659,224782,339658,224782,35,36,353361,250137,353721,250497,353721,250497,90705,339659,224782,340937,226060,342219,227343,343502,228624,344783,229906,346065,231188,,232470,MemorySpan_1,0,75878,121,yes,1024
6,3,9,9,3000,6,5,4,w,500,750,0,0,651,651,black,no,legacy,legacy,legacy,0,numbers,uniform,,132,0,18,0,51,76,8,9,51,76,8,9,0,0,51,76,0,51,76,8,9,8,9,0,8,9,8,9,8,9,8,9,8,9,8,9,8,9,8,9,8,9,Thu Sep 03 2020 10:23:34 GMT+0200 (Centraleuropæisk sommertid),The main experiment item,yes,,/Users/ethan/Documents/GitHub/OpenSesame/MemorySpan,no,mono,no,18,no,white,no,no,768,legacy,legacy,6399654enter,osweb,1.3.8,enter,space,enter,enter,3839,90657,3839,358,2,legacy,1599121409498,1024,2,48000,-16,7,experiment,0,even,362194,36,362713,370059,250137,353742,224782,353741,224782,35,36,370059,250137,373899,250497,373900,250497,90705,353742,224782,355020,226060,356302,227343,357584,228624,358867,229906,360148,231188,361429,232470,MemorySpan_1,0,83946,129,yes,1024
9,6,1,8,3000,5,3,4,w,500,750,0,0,657,657,black,no,legacy,legacy,legacy,0,numbers,uniform,,139,0,19,0,59,76,9,9,59,76,9,9,0,0,59,76,0,59,76,9,9,9,9,0,9,9,9,9,9,9,9,9,9,9,9,9,9,9,9,9,9,9,Thu Sep 03 2020 10:23:34 GMT+0200 (Centraleuropæisk sommertid),The main experiment item,yes,,/Users/ethan/Documents/GitHub/OpenSesame/MemorySpan,no,mono,no,18,no,white,no,no,768,legacy,legacy,9618534enter,osweb,1.3.8,enter,space,enter,enter,1948,90657,1948,358,2,legacy,1599121409498,1024,2,48000,-16,7,experiment,0,even,382354,36,382872,390199,250137,373920,224782,373920,224782,35,36,390199,250137,392159,250497,392159,250497,90705,373920,224782,375196,226060,376478,227343,377760,228624,379025,229906,380307,231188,381588,232470,MemorySpan_1,0,90052,137,yes,1024
v,j,y,w,3000,w,w,w,w,500,750,0,0,692,692,black,no,legacy,legacy,legacy,0,letters,uniform,,6,0,0,0,,3,,0,,3,,0,0,0,,3,0,,3,,0,,0,0,,0,,0,,0,,0,,0,,0,,0,,0,,0,Thu Sep 03 2020 10:23:14 GMT+0200 (Centraleuropæisk sommertid),The main experiment item,yes,,/Users/ethan/Documents/GitHub/OpenSesame/MemorySpan,no,mono,no,18,no,white,no,no,768,legacy,legacy,vjyenter,osweb,1.3.8,enter,space,,enter,695,24933,,695,2,legacy,1599121413070,1024,2,48000,-16,3,experiment,1,odd,30403,37,30924,,36070,,25006,,25005,36,37,,36070,,36781,,36781,24974,,25006,,26290,,27572,,,,,,,,,MemorySpan_1,0,2768,4,yes,1024
v,j,y,w,3000,w,w,w,w,500,750,0,0,545,545,black,no,legacy,legacy,legacy,0,letters,uniform,,6,0,0,0,,3,,0,,3,,0,0,0,,3,0,,3,,0,,0,0,,0,,0,,0,,0,,0,,0,,0,,0,,0,Thu Sep 03 2020 10:25:01 GMT+0200 (Central European Summer Time),The main experiment item,yes,,/Users/ethan/Documents/GitHub/OpenSesame/MemorySpan,no,mono,no,18,no,white,no,no,768,legacy,legacy,vjyenter,osweb,1.3.8,enter,space,,enter,629,1304,,629,2,legacy,1599121477655,1024,2,48000,-16,3,experiment,0,even,6785,38,7483,,12117,,1390,,1389,38,38,,12117,,12759,,12760,1351,,1390,,2669,,3969,,,,,,,,,MemorySpan_1,0,2181,4,yes,1024
z,v,y,w,3000,w,w,w,w,500,750,0,0,560,560,black,no,legacy,legacy,legacy,0,letters,uniform,,13,0,1,0,,7,,1,,7,,1,0,0,,7,0,,7,,1,,1,0,,1,,1,,1,,1,,1,,1,,1,,1,,1,Thu Sep 03 2020 10:25:01 GMT+0200 (Central European Summer Time),The main experiment item,yes,,/Users/ethan/Documents/GitHub/OpenSesame/MemorySpan,no,mono,no,18,no,white,no,no,768,legacy,legacy,zvyenter,osweb,1.3.8,enter,space,,enter,419,1304,,419,2,legacy,1599121477655,1024,2,48000,-16,3,experiment,0,even,18225,38,18745,,23691,,12852,,12851,38,38,,23691,,24115,,24116,1351,,12852,,14127,,15410,,,,,,,,,MemorySpan_1,0,4476,8,yes,1024
z,x,m,y,3000,w,w,w,w,500,750,0,0,637,637,black,no,legacy,legacy,legacy,0,letters,uniform,,20,0,2,0,,12,,2,,12,,2,0,0,,12,0,,12,,2,,2,0,,2,,2,,2,,2,,2,,2,,2,,2,,2,Thu Sep 03 2020 10:25:01 GMT+0200 (Central European Summer Time),The main experiment item,yes,,/Users/ethan/Documents/GitHub/OpenSesame/MemorySpan,no,mono,no,18,no,white,no,no,768,legacy,legacy,zxymenter,osweb,1.3.8,enter,space,,enter,488,1304,,488,2,legacy,1599121477655,1024,2,48000,-16,4,experiment,0,even,30317,38,30834,,37239,,24174,,24174,38,38,,37239,,37731,,37731,1351,,24174,,25449,,26718,,28000,,,,,,,MemorySpan_1,0,8282,13,yes,1024
t,q,t,f,3000,w,w,w,w,500,750,0,0,569,569,black,no,legacy,legacy,legacy,0,letters,uniform,,27,0,3,0,,17,,3,,17,,3,0,0,,17,0,,17,,3,,3,0,,3,,3,,3,,3,,3,,3,,3,,3,,3,Thu Sep 03 2020 10:25:01 GMT+0200 (Central European Summer Time),The main experiment item,yes,,/Users/ethan/Documents/GitHub/OpenSesame/MemorySpan,no,mono,no,18,no,white,no,no,768,legacy,legacy,tqtfenter,osweb,1.3.8,enter,space,,enter,478,1304,,478,2,legacy,1599121477655,1024,2,48000,-16,4,experiment,0,even,43915,38,44432,,49000,,37754,,37754,38,38,,49000,,49479,,49480,1351,,37754,,39031,,40313,,41599,,,,,,,MemorySpan_1,0,10243,18,yes,1024
d,y,v,f,3000,x,w,w,w,500,750,0,0,601,601,black,no,legacy,legacy,legacy,0,letters,uniform,,34,0,4,0,,23,,4,,23,,4,0,0,,23,0,,23,,4,,4,0,,4,,4,,4,,4,,4,,4,,4,,4,,4,Thu Sep 03 2020 10:25:01 GMT+0200 (Central European Summer Time),The main experiment item,yes,,/Users/ethan/Documents/GitHub/OpenSesame/MemorySpan,no,mono,no,18,no,white,no,no,768,legacy,legacy,dqzyfenter,osweb,1.3.8,enter,space,,enter,247,1304,,247,2,legacy,1599121477655,1024,2,48000,-16,5,experiment,0,even,56398,38,56914,,63974,,49503,,49503,38,38,,63975,,64228,,64228,1351,,49503,,50764,,52046,,53329,,54613,,,,,MemorySpan_1,0,14429,24,yes,1024
