[{"acc":100,"accuracy":100,"avg_rt":298,"category":null,"correct":1,"correct_response":"m","count_reset_feedback":0,"count_trial_sequence":0,"response_keyboard_response":"m","response_time":298,"subject_nr":1,"target":null},
{"acc":100,"accuracy":100,"avg_rt":203,"category":null,"correct":1,"correct_response":"m","count_reset_feedback":0,"count_trial_sequence":1,"response_keyboard_response":"m","response_time":107,"subject_nr":1,"target":null},
{"acc":100,"accuracy":100,"avg_rt":181,"category":null,"correct":1,"correct_response":"m","count_reset_feedback":0,"count_trial_sequence":2,"response_keyboard_response":"m","response_time":138,"subject_nr":1,"target":null},
{"acc":100,"accuracy":100,"avg_rt":161,"category":null,"correct":1,"correct_response":"m","count_reset_feedback":0,"count_trial_sequence":3,"response_keyboard_response":"m","response_time":100,"subject_nr":1,"target":null},
{"acc":100,"accuracy":100,"avg_rt":154,"category":null,"correct":1,"correct_response":"m","count_reset_feedback":0,"count_trial_sequence":4,"response_keyboard_response":"m","response_time":129,"subject_nr":1,"target":null},
{"acc":100,"accuracy":100,"avg_rt":149,"category":null,"correct":1,"correct_response":"m","count_reset_feedback":0,"count_trial_sequence":5,"response_keyboard_response":"m","response_time":119,"subject_nr":1,"target":null},
{"acc":100,"accuracy":100,"avg_rt":143,"category":null,"correct":1,"correct_response":"m","count_reset_feedback":0,"count_trial_sequence":6,"response_keyboard_response":"m","response_time":111,"subject_nr":1,"target":null},
{"acc":100,"accuracy":100,"avg_rt":140,"category":null,"correct":1,"correct_response":"m","count_reset_feedback":0,"count_trial_sequence":7,"response_keyboard_response":"m","response_time":118,"subject_nr":1,"target":null},
{"acc":100,"accuracy":100,"avg_rt":139,"category":null,"correct":1,"correct_response":"m","count_reset_feedback":0,"count_trial_sequence":8,"response_keyboard_response":"m","response_time":129,"subject_nr":1,"target":null},
{"acc":100,"accuracy":100,"avg_rt":138,"category":null,"correct":1,"correct_response":"m","count_reset_feedback":0,"count_trial_sequence":9,"response_keyboard_response":"m","response_time":131,"subject_nr":1,"target":null},
{"acc":100,"accuracy":100,"avg_rt":135,"category":null,"correct":1,"correct_response":"m","count_reset_feedback":0,"count_trial_sequence":10,"response_keyboard_response":"m","response_time":105,"subject_nr":1,"target":null},
{"acc":100,"accuracy":100,"avg_rt":134,"category":null,"correct":1,"correct_response":"m","count_reset_feedback":0,"count_trial_sequence":11,"response_keyboard_response":"m","response_time":122,"subject_nr":1,"target":null},
{"acc":100,"accuracy":100,"avg_rt":133,"category":null,"correct":1,"correct_response":"m","count_reset_feedback":0,"count_trial_sequence":12,"response_keyboard_response":"m","response_time":125,"subject_nr":1,"target":null},
{"acc":100,"accuracy":100,"avg_rt":132,"category":null,"correct":1,"correct_response":"m","count_reset_feedback":0,"count_trial_sequence":13,"response_keyboard_response":"m","response_time":116,"subject_nr":1,"target":null},
{"acc":100,"accuracy":100,"avg_rt":131,"category":null,"correct":1,"correct_response":"m","count_reset_feedback":0,"count_trial_sequence":14,"response_keyboard_response":"m","response_time":118,"subject_nr":1,"target":null},
{"acc":100,"accuracy":100,"avg_rt":131,"category":null,"correct":1,"correct_response":"m","count_reset_feedback":0,"count_trial_sequence":15,"response_keyboard_response":"m","response_time":131,"subject_nr":1,"target":null},
{"acc":100,"accuracy":100,"avg_rt":131,"category":null,"correct":1,"correct_response":"m","count_reset_feedback":0,"count_trial_sequence":16,"response_keyboard_response":"m","response_time":131,"subject_nr":1,"target":null},
{"acc":100,"accuracy":100,"avg_rt":129,"category":null,"correct":1,"correct_response":"m","count_reset_feedback":0,"count_trial_sequence":17,"response_keyboard_response":"m","response_time":94,"subject_nr":1,"target":null},
{"acc":100,"accuracy":100,"avg_rt":129,"category":null,"correct":1,"correct_response":"m","count_reset_feedback":0,"count_trial_sequence":18,"response_keyboard_response":"m","response_time":130,"subject_nr":1,"target":null},
{"acc":100,"accuracy":100,"avg_rt":130,"category":null,"correct":1,"correct_response":"m","count_reset_feedback":0,"count_trial_sequence":19,"response_keyboard_response":"m","response_time":142,"subject_nr":1,"target":null},
{"acc":100,"accuracy":100,"avg_rt":129,"category":null,"correct":1,"correct_response":"m","count_reset_feedback":0,"count_trial_sequence":20,"response_keyboard_response":"m","response_time":117,"subject_nr":1,"target":null},
{"acc":100,"accuracy":100,"avg_rt":129,"category":null,"correct":1,"correct_response":"m","count_reset_feedback":0,"count_trial_sequence":21,"response_keyboard_response":"m","response_time":118,"subject_nr":1,"target":null},
{"acc":100,"accuracy":100,"avg_rt":128,"category":null,"correct":1,"correct_response":"m","count_reset_feedback":0,"count_trial_sequence":22,"response_keyboard_response":"m","response_time":119,"subject_nr":1,"target":null},
{"acc":100,"accuracy":100,"avg_rt":128,"category":null,"correct":1,"correct_response":"m","count_reset_feedback":0,"count_trial_sequence":23,"response_keyboard_response":"m","response_time":120,"subject_nr":1,"target":null},
{"acc":100,"accuracy":100,"avg_rt":128,"category":null,"correct":1,"correct_response":"m","count_reset_feedback":0,"count_trial_sequence":24,"response_keyboard_response":"m","response_time":122,"subject_nr":1,"target":null},
{"acc":100,"accuracy":100,"avg_rt":127,"category":null,"correct":1,"correct_response":"m","count_reset_feedback":0,"count_trial_sequence":25,"response_keyboard_response":"m","response_time":123,"subject_nr":1,"target":null},
{"acc":100,"accuracy":100,"avg_rt":127,"category":null,"correct":1,"correct_response":"m","count_reset_feedback":0,"count_trial_sequence":26,"response_keyboard_response":"m","response_time":125,"subject_nr":1,"target":null},
{"acc":100,"accuracy":100,"avg_rt":127,"category":null,"correct":1,"correct_response":"m","count_reset_feedback":0,"count_trial_sequence":27,"response_keyboard_response":"m","response_time":116,"subject_nr":1,"target":null},
{"acc":100,"accuracy":100,"avg_rt":127,"category":null,"correct":1,"correct_response":"m","count_reset_feedback":0,"count_trial_sequence":28,"response_keyboard_response":"m","response_time":128,"subject_nr":1,"target":null},
{"acc":100,"accuracy":100,"avg_rt":127,"category":null,"correct":1,"correct_response":"m","count_reset_feedback":0,"count_trial_sequence":29,"response_keyboard_response":"m","response_time":129,"subject_nr":1,"target":null},
{"acc":100,"accuracy":100,"avg_rt":127,"category":null,"correct":1,"correct_response":"m","count_reset_feedback":0,"count_trial_sequence":30,"response_keyboard_response":"m","response_time":132,"subject_nr":1,"target":null},
{"acc":100,"accuracy":100,"avg_rt":127,"category":null,"correct":1,"correct_response":"m","count_reset_feedback":0,"count_trial_sequence":31,"response_keyboard_response":"m","response_time":126,"subject_nr":1,"target":null},
{"acc":100,"accuracy":100,"avg_rt":127,"category":null,"correct":1,"correct_response":"m","count_reset_feedback":0,"count_trial_sequence":32,"response_keyboard_response":"m","response_time":129,"subject_nr":1,"target":null},
{"acc":100,"accuracy":100,"avg_rt":127,"category":null,"correct":1,"correct_response":"m","count_reset_feedback":0,"count_trial_sequence":33,"response_keyboard_response":"m","response_time":132,"subject_nr":1,"target":null},
{"acc":100,"accuracy":100,"avg_rt":127,"category":null,"correct":1,"correct_response":"m","count_reset_feedback":0,"count_trial_sequence":34,"response_keyboard_response":"m","response_time":127,"subject_nr":1,"target":null},
{"acc":100,"accuracy":100,"avg_rt":128,"category":null,"correct":1,"correct_response":"m","count_reset_feedback":0,"count_trial_sequence":35,"response_keyboard_response":"m","response_time":152,"subject_nr":1,"target":null},
{"acc":100,"accuracy":100,"avg_rt":128,"category":null,"correct":1,"correct_response":"m","count_reset_feedback":0,"count_trial_sequence":36,"response_keyboard_response":"m","response_time":131,"subject_nr":1,"target":null},
{"acc":100,"accuracy":100,"avg_rt":128,"category":null,"correct":1,"correct_response":"m","count_reset_feedback":0,"count_trial_sequence":37,"response_keyboard_response":"m","response_time":134,"subject_nr":1,"target":null},
{"acc":100,"accuracy":100,"avg_rt":128,"category":null,"correct":1,"correct_response":"m","count_reset_feedback":0,"count_trial_sequence":38,"response_keyboard_response":"m","response_time":116,"subject_nr":1,"target":null},
{"acc":100,"accuracy":100,"avg_rt":128,"category":null,"correct":1,"correct_response":"m","count_reset_feedback":0,"count_trial_sequence":39,"response_keyboard_response":"m","response_time":117,"subject_nr":1,"target":null},
{"acc":100,"accuracy":100,"avg_rt":127,"category":null,"correct":1,"correct_response":"m","count_reset_feedback":0,"count_trial_sequence":40,"response_keyboard_response":"m","response_time":118,"subject_nr":1,"target":null},
{"acc":100,"accuracy":100,"avg_rt":127,"category":null,"correct":1,"correct_response":"m","count_reset_feedback":0,"count_trial_sequence":41,"response_keyboard_response":"m","response_time":123,"subject_nr":1,"target":null},
{"acc":100,"accuracy":100,"avg_rt":128,"category":null,"correct":1,"correct_response":"m","count_reset_feedback":0,"count_trial_sequence":42,"response_keyboard_response":"m","response_time":146,"subject_nr":1,"target":null},
{"acc":100,"accuracy":100,"avg_rt":128,"category":null,"correct":1,"correct_response":"m","count_reset_feedback":0,"count_trial_sequence":43,"response_keyboard_response":"m","response_time":141,"subject_nr":1,"target":null},
{"acc":100,"accuracy":100,"avg_rt":128,"category":null,"correct":1,"correct_response":"m","count_reset_feedback":0,"count_trial_sequence":44,"response_keyboard_response":"m","response_time":126,"subject_nr":1,"target":null},
{"acc":100,"accuracy":100,"avg_rt":128,"category":null,"correct":1,"correct_response":"m","count_reset_feedback":0,"count_trial_sequence":45,"response_keyboard_response":"m","response_time":128,"subject_nr":1,"target":null},
{"acc":100,"accuracy":100,"avg_rt":128,"category":null,"correct":1,"correct_response":"m","count_reset_feedback":0,"count_trial_sequence":46,"response_keyboard_response":"m","response_time":119,"subject_nr":1,"target":null},
{"acc":100,"accuracy":100,"avg_rt":128,"category":null,"correct":1,"correct_response":"m","count_reset_feedback":0,"count_trial_sequence":47,"response_keyboard_response":"m","response_time":120,"subject_nr":1,"target":null},
{"acc":100,"accuracy":100,"avg_rt":128,"category":null,"correct":1,"correct_response":"m","count_reset_feedback":0,"count_trial_sequence":48,"response_keyboard_response":"m","response_time":122,"subject_nr":1,"target":null},
{"acc":100,"accuracy":100,"avg_rt":128,"category":null,"correct":1,"correct_response":"m","count_reset_feedback":0,"count_trial_sequence":49,"response_keyboard_response":"m","response_time":145,"subject_nr":1,"target":null},

{"data":[{"acc":100,"accuracy":100,"avg_rt":311,"category":null,"correct":1,"correct_response":"m","count_reset_feedback":0,"count_trial_sequence":0,"response_keyboard_response":"m","response_time":311,"subject_nr":0,"target":null},{"acc":100,"accuracy":100,"avg_rt":216,"category":null,"correct":1,"correct_response":"m","count_reset_feedback":0,"count_trial_sequence":1,"response_keyboard_response":"m","response_time":120,"subject_nr":0,"target":null},{"acc":100,"accuracy":100,"avg_rt":184,"category":null,"correct":1,"correct_response":"m","count_reset_feedback":0,"count_trial_sequence":2,"response_keyboard_response":"m","response_time":120,"subject_nr":0,"target":null},{"acc":100,"accuracy":100,"avg_rt":165,"category":null,"correct":1,"correct_response":"m","count_reset_feedback":0,"count_trial_sequence":3,"response_keyboard_response":"m","response_time":110,"subject_nr":0,"target":null},{"acc":100,"accuracy":100,"avg_rt":158,"category":null,"correct":1,"correct_response":"m","count_reset_feedback":0,"count_trial_sequence":4,"response_keyboard_response":"m","response_time":130,"subject_nr":0,"target":null},{"acc":100,"accuracy":100,"avg_rt":152,"category":null,"correct":1,"correct_response":"m","count_reset_feedback":0,"count_trial_sequence":5,"response_keyboard_response":"m","response_time":121,"subject_nr":0,"target":null},{"acc":100,"accuracy":100,"avg_rt":149,"category":null,"correct":1,"correct_response":"m","count_reset_feedback":0,"count_trial_sequence":6,"response_keyboard_response":"m","response_time":132,"subject_nr":0,"target":null},{"acc":100,"accuracy":100,"avg_rt":147,"category":null,"correct":1,"correct_response":"m","count_reset_feedback":0,"count_trial_sequence":7,"response_keyboard_response":"m","response_time":128,"subject_nr":0,"target":null},{"acc":100,"accuracy":100,"avg_rt":145,"category":null,"correct":1,"correct_response":"m","count_reset_feedback":0,"count_trial_sequence":8,"response_keyboard_response":"m","response_time":130,"subject_nr":0,"target":null},{"acc":100,"accuracy":100,"avg_rt":141,"category":null,"correct":1,"correct_response":"m","count_reset_feedback":0,"count_trial_sequence":9,"response_keyboard_response":"m","response_time":104,"subject_nr":0,"target":null},{"acc":100,"accuracy":100,"avg_rt":140,"category":null,"correct":1,"correct_response":"m","count_reset_feedback":0,"count_trial_sequence":10,"response_keyboard_response":"m","response_time":133,"subject_nr":0,"target":null},{"acc":100,"accuracy":100,"avg_rt":139,"category":null,"correct":1,"correct_response":"m","count_reset_feedback":0,"count_trial_sequence":11,"response_keyboard_response":"m","response_time":130,"subject_nr":0,"target":null},{"acc":100,"accuracy":100,"avg_rt":138,"category":null,"correct":1,"correct_response":"m","count_reset_feedback":0,"count_trial_sequence":12,"response_keyboard_response":"m","response_time":121,"subject_nr":0,"target":null},{"acc":100,"accuracy":100,"avg_rt":137,"category":null,"correct":1,"correct_response":"m","count_reset_feedback":0,"count_trial_sequence":13,"response_keyboard_response":"m","response_time":132,"subject_nr":0,"target":null},{"acc":100,"accuracy":100,"avg_rt":136,"category":null,"correct":1,"correct_response":"m","count_reset_feedback":0,"count_trial_sequence":14,"response_keyboard_response":"m","response_time":117,"subject_nr":0,"target":null},{"acc":100,"accuracy":100,"avg_rt":136,"category":null,"correct":1,"correct_response":"m","count_reset_feedback":0,"count_trial_sequence":15,"response_keyboard_response":"m","response_time":130,"subject_nr":0,"target":null},{"acc":100,"accuracy":100,"avg_rt":135,"category":null,"correct":1,"correct_response":"m","count_reset_feedback":0,"count_trial_sequence":16,"response_keyboard_response":"m","response_time":121,"subject_nr":0,"target":null},{"acc":100,"accuracy":100,"avg_rt":133,"category":null,"correct":1,"correct_response":"m","count_reset_feedback":0,"count_trial_sequence":17,"response_keyboard_response":"m","response_time":99,"subject_nr":0,"target":null},{"acc":100,"accuracy":100,"avg_rt":131,"category":null,"correct":1,"correct_response":"m","count_reset_feedback":0,"count_trial_sequence":18,"response_keyboard_response":"m","response_time":106,"subject_nr":0,"target":null},{"acc":100,"accuracy":100,"avg_rt":130,"category":null,"correct":1,"correct_response":"m","count_reset_feedback":0,"count_trial_sequence":19,"response_keyboard_response":"m","response_time":114,"subject_nr":0,"target":null},{"acc":100,"accuracy":100,"avg_rt":130,"category":null,"correct":1,"correct_response":"m","count_reset_feedback":0,"count_trial_sequence":20,"response_keyboard_response":"m","response_time":128,"subject_nr":0,"target":null},{"acc":100,"accuracy":100,"avg_rt":131,"category":null,"correct":1,"correct_response":"m","count_reset_feedback":0,"count_trial_sequence":21,"response_keyboard_response":"m","response_time":141,"subject_nr":0,"target":null},{"acc":100,"accuracy":100,"avg_rt":131,"category":null,"correct":1,"correct_response":"m","count_reset_feedback":0,"count_trial_sequence":22,"response_keyboard_response":"m","response_time":135,"subject_nr":0,"target":null},{"acc":100,"accuracy":100,"avg_rt":131,"category":null,"correct":1,"correct_response":"m","count_reset_feedback":0,"count_trial_sequence":23,"response_keyboard_response":"m","response_time":131,"subject_nr":0,"target":null},{"acc":100,"accuracy":100,"avg_rt":131,"category":null,"correct":1,"correct_response":"m","count_reset_feedback":0,"count_trial_sequence":24,"response_keyboard_response":"m","response_time":127,"subject_nr":0,"target":null},{"acc":100,"accuracy":100,"avg_rt":130,"category":null,"correct":1,"correct_response":"m","count_reset_feedback":0,"count_trial_sequence":25,"response_keyboard_response":"m","response_time":118,"subject_nr":0,"target":null},{"acc":100,"accuracy":100,"avg_rt":130,"category":null,"correct":1,"correct_response":"m","count_reset_feedback":0,"count_trial_sequence":26,"response_keyboard_response":"m","response_time":120,"subject_nr":0,"target":null},{"acc":100,"accuracy":100,"avg_rt":130,"category":null,"correct":1,"correct_response":"m","count_reset_feedback":0,"count_trial_sequence":27,"response_keyboard_response":"m","response_time":132,"subject_nr":0,"target":null},{"acc":100,"accuracy":100,"avg_rt":130,"category":null,"correct":1,"correct_response":"m","count_reset_feedback":0,"count_trial_sequence":28,"response_keyboard_response":"m","response_time":128,"subject_nr":0,"target":null},{"acc":100,"accuracy":100,"avg_rt":130,"category":null,"correct":1,"correct_response":"m","count_reset_feedback":0,"count_trial_sequence":29,"response_keyboard_response":"m","response_time":142,"subject_nr":0,"target":null},{"acc":100,"accuracy":100,"avg_rt":131,"category":null,"correct":1,"correct_response":"m","count_reset_feedback":0,"count_trial_sequence":30,"response_keyboard_response":"m","response_time":138,"subject_nr":0,"target":null},{"acc":100,"accuracy":100,"avg_rt":130,"category":null,"correct":1,"correct_response":"m","count_reset_feedback":0,"count_trial_sequence":31,"response_keyboard_response":"m","response_time":122,"subject_nr":0,"target":null},{"acc":100,"accuracy":100,"avg_rt":131,"category":null,"correct":1,"correct_response":"m","count_reset_feedback":0,"count_trial_sequence":32,"response_keyboard_response":"m","response_time":142,"subject_nr":0,"target":null},{"acc":100,"accuracy":100,"avg_rt":131,"category":null,"correct":1,"correct_response":"m","count_reset_feedback":0,"count_trial_sequence":33,"response_keyboard_response":"m","response_time":130,"subject_nr":0,"target":null},{"acc":100,"accuracy":100,"avg_rt":130,"category":null,"correct":1,"correct_response":"m","count_reset_feedback":0,"count_trial_sequence":34,"response_keyboard_response":"m","response_time":113,"subject_nr":0,"target":null},{"acc":100,"accuracy":100,"avg_rt":130,"category":null,"correct":1,"correct_response":"m","count_reset_feedback":0,"count_trial_sequence":35,"response_keyboard_response":"m","response_time":128,"subject_nr":0,"target":null},{"acc":100,"accuracy":100,"avg_rt":130,"category":null,"correct":1,"correct_response":"m","count_reset_feedback":0,"count_trial_sequence":36,"response_keyboard_response":"m","response_time":141,"subject_nr":0,"target":null},{"acc":100,"accuracy":100,"avg_rt":131,"category":null,"correct":1,"correct_response":"m","count_reset_feedback":0,"count_trial_sequence":37,"response_keyboard_response":"m","response_time":137,"subject_nr":0,"target":null},{"acc":100,"accuracy":100,"avg_rt":130,"category":null,"correct":1,"correct_response":"m","count_reset_feedback":0,"count_trial_sequence":38,"response_keyboard_response":"m","response_time":124,"subject_nr":0,"target":null},{"acc":100,"accuracy":100,"avg_rt":130,"category":null,"correct":1,"correct_response":"m","count_reset_feedback":0,"count_trial_sequence":39,"response_keyboard_response":"m","response_time":124,"subject_nr":0,"target":null},{"acc":100,"accuracy":100,"avg_rt":130,"category":null,"correct":1,"correct_response":"m","count_reset_feedback":0,"count_trial_sequence":40,"response_keyboard_response":"m","response_time":126,"subject_nr":0,"target":null},{"acc":100,"accuracy":100,"avg_rt":130,"category":null,"correct":1,"correct_response":"m","count_reset_feedback":0,"count_trial_sequence":41,"response_keyboard_response":"m","response_time":139,"subject_nr":0,"target":null},{"acc":100,"accuracy":100,"avg_rt":130,"category":null,"correct":1,"correct_response":"m","count_reset_feedback":0,"count_trial_sequence":42,"response_keyboard_response":"m","response_time":135,"subject_nr":0,"target":null},{"acc":100,"accuracy":100,"avg_rt":130,"category":null,"correct":1,"correct_response":"m","count_reset_feedback":0,"count_trial_sequence":43,"response_keyboard_response":"m","response_time":131,"subject_nr":0,"target":null},{"acc":100,"accuracy":100,"avg_rt":130,"category":null,"correct":1,"correct_response":"m","count_reset_feedback":0,"count_trial_sequence":44,"response_keyboard_response":"m","response_time":127,"subject_nr":0,"target":null},{"acc":100,"accuracy":100,"avg_rt":130,"category":null,"correct":1,"correct_response":"m","count_reset_feedback":0,"count_trial_sequence":45,"response_keyboard_response":"m","response_time":117,"subject_nr":0,"target":null},{"acc":100,"accuracy":100,"avg_rt":130,"category":null,"correct":1,"correct_response":"m","count_reset_feedback":0,"count_trial_sequence":46,"response_keyboard_response":"m","response_time":141,"subject_nr":0,"target":null},{"acc":100,"accuracy":100,"avg_rt":130,"category":null,"correct":1,"correct_response":"m","count_reset_feedback":0,"count_trial_sequence":47,"response_keyboard_response":"m","response_time":117,"subject_nr":0,"target":null},{"acc":100,"accuracy":100,"avg_rt":130,"category":null,"correct":1,"correct_response":"m","count_reset_feedback":0,"count_trial_sequence":48,"response_keyboard_response":"m","response_time":116,"subject_nr":0,"target":null},{"acc":100,"accuracy":100,"avg_rt":130,"category":null,"correct":1,"correct_response":"m","count_reset_feedback":0,"count_trial_sequence":49,"response_keyboard_response":"m","response_time":131,"subject_nr":0,"target":null}],"context":{"browser":{"codename":"Mozilla","name":"Netscape","version":"5.0 (Macintosh)"},"date":{"startdate":"27-05-22","starttime":"14:34:32","startdateUTC":"27-05-22"},"experiment":{"debug":0,"parameters":0,"pilot":0,"taskname":0,"taskversion":0},"screen":{"availableHeight":1175,"availableWidth":1920,"colorDepth":30,"height":1200,"pixelDepth":30,"screenX":277,"screenY":114,"width":1920},"system":{"os":"MacIntel"},"jatosVersion":"3.6.1","jatosStudyResultId":"623","queryParams":{"generalMultiple":"","batchId":"226"}}}
{"data":[{"acc":100,"accuracy":100,"avg_rt":239,"category":null,"correct":1,"correct_response":"m","count_reset_feedback":0,"count_trial_sequence":0,"response_keyboard_response":"m","response_time":239,"subject_nr":1,"target":null},{"acc":100,"accuracy":100,"avg_rt":176,"category":null,"correct":1,"correct_response":"m","count_reset_feedback":0,"count_trial_sequence":1,"response_keyboard_response":"m","response_time":112,"subject_nr":1,"target":null},{"acc":100,"accuracy":100,"avg_rt":157,"category":null,"correct":1,"correct_response":"m","count_reset_feedback":0,"count_trial_sequence":2,"response_keyboard_response":"m","response_time":121,"subject_nr":1,"target":null},{"acc":100,"accuracy":100,"avg_rt":149,"category":null,"correct":1,"correct_response":"m","count_reset_feedback":0,"count_trial_sequence":3,"response_keyboard_response":"m","response_time":122,"subject_nr":1,"target":null},{"acc":100,"accuracy":100,"avg_rt":144,"category":null,"correct":1,"correct_response":"m","count_reset_feedback":0,"count_trial_sequence":4,"response_keyboard_response":"m","response_time":125,"subject_nr":1,"target":null},{"acc":100,"accuracy":100,"avg_rt":141,"category":null,"correct":1,"correct_response":"m","count_reset_feedback":0,"count_trial_sequence":5,"response_keyboard_response":"m","response_time":124,"subject_nr":1,"target":null},{"acc":100,"accuracy":100,"avg_rt":137,"category":null,"correct":1,"correct_response":"m","count_reset_feedback":0,"count_trial_sequence":6,"response_keyboard_response":"m","response_time":118,"subject_nr":1,"target":null},{"acc":100,"accuracy":100,"avg_rt":136,"category":null,"correct":1,"correct_response":"m","count_reset_feedback":0,"count_trial_sequence":7,"response_keyboard_response":"m","response_time":130,"subject_nr":1,"target":null},{"acc":100,"accuracy":100,"avg_rt":134,"category":null,"correct":1,"correct_response":"m","count_reset_feedback":0,"count_trial_sequence":8,"response_keyboard_response":"m","response_time":119,"subject_nr":1,"target":null},{"acc":100,"accuracy":100,"avg_rt":133,"category":null,"correct":1,"correct_response":"m","count_reset_feedback":0,"count_trial_sequence":9,"response_keyboard_response":"m","response_time":121,"subject_nr":1,"target":null},{"acc":100,"accuracy":100,"avg_rt":133,"category":null,"correct":1,"correct_response":"m","count_reset_feedback":0,"count_trial_sequence":10,"response_keyboard_response":"m","response_time":134,"subject_nr":1,"target":null},{"acc":100,"accuracy":100,"avg_rt":142,"category":null,"correct":1,"correct_response":"m","count_reset_feedback":0,"count_trial_sequence":11,"response_keyboard_response":"m","response_time":242,"subject_nr":1,"target":null},{"acc":100,"accuracy":100,"avg_rt":140,"category":null,"correct":1,"correct_response":"m","count_reset_feedback":0,"count_trial_sequence":12,"response_keyboard_response":"m","response_time":117,"subject_nr":1,"target":null},{"acc":100,"accuracy":100,"avg_rt":138,"category":null,"correct":1,"correct_response":"m","count_reset_feedback":0,"count_trial_sequence":13,"response_keyboard_response":"m","response_time":105,"subject_nr":1,"target":null},{"acc":100,"accuracy":100,"avg_rt":139,"category":null,"correct":1,"correct_response":"m","count_reset_feedback":0,"count_trial_sequence":14,"response_keyboard_response":"m","response_time":159,"subject_nr":1,"target":null},{"acc":100,"accuracy":100,"avg_rt":139,"category":null,"correct":1,"correct_response":"m","count_reset_feedback":0,"count_trial_sequence":15,"response_keyboard_response":"m","response_time":137,"subject_nr":1,"target":null},{"acc":100,"accuracy":100,"avg_rt":135,"category":null,"correct":1,"correct_response":"m","count_reset_feedback":0,"count_trial_sequence":16,"response_keyboard_response":"m","response_time":77,"subject_nr":1,"target":null},{"acc":100,"accuracy":100,"avg_rt":136,"category":null,"correct":1,"correct_response":"m","count_reset_feedback":0,"count_trial_sequence":17,"response_keyboard_response":"m","response_time":140,"subject_nr":1,"target":null},{"acc":100,"accuracy":100,"avg_rt":134,"category":null,"correct":1,"correct_response":"m","count_reset_feedback":0,"count_trial_sequence":18,"response_keyboard_response":"m","response_time":112,"subject_nr":1,"target":null},{"acc":100,"accuracy":100,"avg_rt":134,"category":null,"correct":1,"correct_response":"m","count_reset_feedback":0,"count_trial_sequence":19,"response_keyboard_response":"m","response_time":120,"subject_nr":1,"target":null},{"acc":100,"accuracy":100,"avg_rt":133,"category":null,"correct":1,"correct_response":"m","count_reset_feedback":0,"count_trial_sequence":20,"response_keyboard_response":"m","response_time":123,"subject_nr":1,"target":null},{"acc":100,"accuracy":100,"avg_rt":132,"category":null,"correct":1,"correct_response":"m","count_reset_feedback":0,"count_trial_sequence":21,"response_keyboard_response":"m","response_time":112,"subject_nr":1,"target":null},{"acc":100,"accuracy":100,"avg_rt":132,"category":null,"correct":1,"correct_response":"m","count_reset_feedback":0,"count_trial_sequence":22,"response_keyboard_response":"m","response_time":131,"subject_nr":1,"target":null},{"acc":100,"accuracy":100,"avg_rt":132,"category":null,"correct":1,"correct_response":"m","count_reset_feedback":0,"count_trial_sequence":23,"response_keyboard_response":"m","response_time":116,"subject_nr":1,"target":null},{"acc":100,"accuracy":100,"avg_rt":131,"category":null,"correct":1,"correct_response":"m","count_reset_feedback":0,"count_trial_sequence":24,"response_keyboard_response":"m","response_time":107,"subject_nr":1,"target":null},{"acc":100,"accuracy":100,"avg_rt":130,"category":null,"correct":1,"correct_response":"m","count_reset_feedback":0,"count_trial_sequence":25,"response_keyboard_response":"m","response_time":115,"subject_nr":1,"target":null},{"acc":100,"accuracy":100,"avg_rt":130,"category":null,"correct":1,"correct_response":"m","count_reset_feedback":0,"count_trial_sequence":26,"response_keyboard_response":"m","response_time":132,"subject_nr":1,"target":null},{"acc":100,"accuracy":100,"avg_rt":130,"category":null,"correct":1,"correct_response":"m","count_reset_feedback":0,"count_trial_sequence":27,"response_keyboard_response":"m","response_time":139,"subject_nr":1,"target":null},{"acc":100,"accuracy":100,"avg_rt":130,"category":null,"correct":1,"correct_response":"m","count_reset_feedback":0,"count_trial_sequence":28,"response_keyboard_response":"m","response_time":112,"subject_nr":1,"target":null},{"acc":100,"accuracy":100,"avg_rt":130,"category":null,"correct":1,"correct_response":"m","count_reset_feedback":0,"count_trial_sequence":29,"response_keyboard_response":"m","response_time":132,"subject_nr":1,"target":null},{"acc":100,"accuracy":100,"avg_rt":129,"category":null,"correct":1,"correct_response":"m","count_reset_feedback":0,"count_trial_sequence":30,"response_keyboard_response":"m","response_time":104,"subject_nr":1,"target":null},{"acc":100,"accuracy":100,"avg_rt":128,"category":null,"correct":1,"correct_response":"m","count_reset_feedback":0,"count_trial_sequence":31,"response_keyboard_response":"m","response_time":111,"subject_nr":1,"target":null},{"acc":100,"accuracy":100,"avg_rt":128,"category":null,"correct":1,"correct_response":"m","count_reset_feedback":0,"count_trial_sequence":32,"response_keyboard_response":"m","response_time":130,"subject_nr":1,"target":null},{"acc":100,"accuracy":100,"avg_rt":129,"category":null,"correct":1,"correct_response":"m","count_reset_feedback":0,"count_trial_sequence":33,"response_keyboard_response":"m","response_time":132,"subject_nr":1,"target":null},{"acc":100,"accuracy":100,"avg_rt":128,"category":null,"correct":1,"correct_response":"m","count_reset_feedback":0,"count_trial_sequence":34,"response_keyboard_response":"m","response_time":123,"subject_nr":1,"target":null},{"acc":100,"accuracy":100,"avg_rt":128,"category":null,"correct":1,"correct_response":"m","count_reset_feedback":0,"count_trial_sequence":35,"response_keyboard_response":"m","response_time":115,"subject_nr":1,"target":null},{"acc":100,"accuracy":100,"avg_rt":128,"category":null,"correct":1,"correct_response":"m","count_reset_feedback":0,"count_trial_sequence":36,"response_keyboard_response":"m","response_time":116,"subject_nr":1,"target":null},{"acc":100,"accuracy":100,"avg_rt":127,"category":null,"correct":1,"correct_response":"m","count_reset_feedback":0,"count_trial_sequence":37,"response_keyboard_response":"m","response_time":119,"subject_nr":1,"target":null},{"acc":100,"accuracy":100,"avg_rt":127,"category":null,"correct":1,"correct_response":"m","count_reset_feedback":0,"count_trial_sequence":38,"response_keyboard_response":"m","response_time":121,"subject_nr":1,"target":null},{"acc":100,"accuracy":100,"avg_rt":127,"category":null,"correct":1,"correct_response":"m","count_reset_feedback":0,"count_trial_sequence":39,"response_keyboard_response":"m","response_time":102,"subject_nr":1,"target":null},{"acc":100,"accuracy":100,"avg_rt":127,"category":null,"correct":1,"correct_response":"m","count_reset_feedback":0,"count_trial_sequence":40,"response_keyboard_response":"m","response_time":131,"subject_nr":1,"target":null},{"acc":100,"accuracy":100,"avg_rt":127,"category":null,"correct":1,"correct_response":"m","count_reset_feedback":0,"count_trial_sequence":41,"response_keyboard_response":"m","response_time":116,"subject_nr":1,"target":null},{"acc":100,"accuracy":100,"avg_rt":126,"category":null,"correct":1,"correct_response":"m","count_reset_feedback":0,"count_trial_sequence":42,"response_keyboard_response":"m","response_time":105,"subject_nr":1,"target":null},{"acc":100,"accuracy":100,"avg_rt":126,"category":null,"correct":1,"correct_response":"m","count_reset_feedback":0,"count_trial_sequence":43,"response_keyboard_response":"m","response_time":113,"subject_nr":1,"target":null},{"acc":100,"accuracy":100,"avg_rt":125,"category":null,"correct":1,"correct_response":"m","count_reset_feedback":0,"count_trial_sequence":44,"response_keyboard_response":"m","response_time":109,"subject_nr":1,"target":null},{"acc":100,"accuracy":100,"avg_rt":125,"category":null,"correct":1,"correct_response":"m","count_reset_feedback":0,"count_trial_sequence":45,"response_keyboard_response":"m","response_time":116,"subject_nr":1,"target":null},{"acc":100,"accuracy":100,"avg_rt":125,"category":null,"correct":1,"correct_response":"m","count_reset_feedback":0,"count_trial_sequence":46,"response_keyboard_response":"m","response_time":105,"subject_nr":1,"target":null},{"acc":100,"accuracy":100,"avg_rt":125,"category":null,"correct":1,"correct_response":"m","count_reset_feedback":0,"count_trial_sequence":47,"response_keyboard_response":"m","response_time":124,"subject_nr":1,"target":null},{"acc":100,"accuracy":100,"avg_rt":124,"category":null,"correct":1,"correct_response":"m","count_reset_feedback":0,"count_trial_sequence":48,"response_keyboard_response":"m","response_time":114,"subject_nr":1,"target":null},{"acc":100,"accuracy":100,"avg_rt":124,"category":null,"correct":1,"correct_response":"m","count_reset_feedback":0,"count_trial_sequence":49,"response_keyboard_response":"m","response_time":94,"subject_nr":1,"target":null}],"context":{"browser":{"codename":"Mozilla","name":"Netscape","version":"5.0 (Macintosh)"},"date":{"startdate":"27-05-22","starttime":"14:34:05","startdateUTC":"27-05-22"},"experiment":{"debug":0,"parameters":0,"pilot":0,"taskname":0,"taskversion":0},"screen":{"availableHeight":1175,"availableWidth":1920,"colorDepth":30,"height":1200,"pixelDepth":30,"screenX":277,"screenY":114,"width":1920},"system":{"os":"MacIntel"},"jatosVersion":"3.6.1","jatosStudyResultId":"622","queryParams":{"generalMultiple":"","batchId":"226"}}}
[{"acc":100,"accuracy":100,"avg_rt":86,"category":null,"correct":1,"correct_response":"m","count_reset_feedback":0,"count_trial_sequence":0,"response_keyboard_response":"m","response_time":86,"subject_nr":0,"target":null},
{"acc":100,"accuracy":100,"avg_rt":104,"category":null,"correct":1,"correct_response":"m","count_reset_feedback":0,"count_trial_sequence":1,"response_keyboard_response":"m","response_time":121,"subject_nr":0,"target":null},
{"acc":100,"accuracy":100,"avg_rt":110,"category":null,"correct":1,"correct_response":"m","count_reset_feedback":0,"count_trial_sequence":2,"response_keyboard_response":"m","response_time":123,"subject_nr":0,"target":null},
{"acc":100,"accuracy":100,"avg_rt":111,"category":null,"correct":1,"correct_response":"m","count_reset_feedback":0,"count_trial_sequence":3,"response_keyboard_response":"m","response_time":113,"subject_nr":0,"target":null},
{"acc":100,"accuracy":100,"avg_rt":126,"category":null,"correct":1,"correct_response":"m","count_reset_feedback":0,"count_trial_sequence":4,"response_keyboard_response":"m","response_time":188,"subject_nr":0,"target":null},
{"acc":100,"accuracy":100,"avg_rt":120,"category":null,"correct":1,"correct_response":"m","count_reset_feedback":0,"count_trial_sequence":5,"response_keyboard_response":"m","response_time":89,"subject_nr":0,"target":null},
{"acc":100,"accuracy":100,"avg_rt":119,"category":null,"correct":1,"correct_response":"m","count_reset_feedback":0,"count_trial_sequence":6,"response_keyboard_response":"m","response_time":112,"subject_nr":0,"target":null},
{"acc":100,"accuracy":100,"avg_rt":119,"category":null,"correct":1,"correct_response":"m","count_reset_feedback":0,"count_trial_sequence":7,"response_keyboard_response":"m","response_time":120,"subject_nr":0,"target":null},
{"acc":100,"accuracy":100,"avg_rt":120,"category":null,"correct":1,"correct_response":"m","count_reset_feedback":0,"count_trial_sequence":8,"response_keyboard_response":"m","response_time":132,"subject_nr":0,"target":null},
{"acc":100,"accuracy":100,"avg_rt":120,"category":null,"correct":1,"correct_response":"m","count_reset_feedback":0,"count_trial_sequence":9,"response_keyboard_response":"m","response_time":116,"subject_nr":0,"target":null},
{"acc":100,"accuracy":100,"avg_rt":120,"category":null,"correct":1,"correct_response":"m","count_reset_feedback":0,"count_trial_sequence":10,"response_keyboard_response":"m","response_time":119,"subject_nr":0,"target":null},
{"acc":100,"accuracy":100,"avg_rt":120,"category":null,"correct":1,"correct_response":"m","count_reset_feedback":0,"count_trial_sequence":11,"response_keyboard_response":"m","response_time":118,"subject_nr":0,"target":null},
{"acc":100,"accuracy":100,"avg_rt":121,"category":null,"correct":1,"correct_response":"m","count_reset_feedback":0,"count_trial_sequence":12,"response_keyboard_response":"m","response_time":131,"subject_nr":0,"target":null},
{"acc":100,"accuracy":100,"avg_rt":120,"category":null,"correct":1,"correct_response":"m","count_reset_feedback":0,"count_trial_sequence":13,"response_keyboard_response":"m","response_time":116,"subject_nr":0,"target":null},
{"acc":100,"accuracy":100,"avg_rt":120,"category":null,"correct":1,"correct_response":"m","count_reset_feedback":0,"count_trial_sequence":14,"response_keyboard_response":"m","response_time":119,"subject_nr":0,"target":null},
{"acc":100,"accuracy":100,"avg_rt":119,"category":null,"correct":1,"correct_response":"m","count_reset_feedback":0,"count_trial_sequence":15,"response_keyboard_response":"m","response_time":108,"subject_nr":0,"target":null},
{"acc":100,"accuracy":100,"avg_rt":120,"category":null,"correct":1,"correct_response":"m","count_reset_feedback":0,"count_trial_sequence":16,"response_keyboard_response":"m","response_time":127,"subject_nr":0,"target":null},
{"acc":100,"accuracy":100,"avg_rt":121,"category":null,"correct":1,"correct_response":"m","count_reset_feedback":0,"count_trial_sequence":17,"response_keyboard_response":"m","response_time":142,"subject_nr":0,"target":null},
{"acc":100,"accuracy":100,"avg_rt":123,"category":null,"correct":1,"correct_response":"m","count_reset_feedback":0,"count_trial_sequence":18,"response_keyboard_response":"m","response_time":159,"subject_nr":0,"target":null},
{"acc":100,"accuracy":100,"avg_rt":123,"category":null,"correct":1,"correct_response":"m","count_reset_feedback":0,"count_trial_sequence":19,"response_keyboard_response":"m","response_time":127,"subject_nr":0,"target":null},
{"acc":100,"accuracy":100,"avg_rt":122,"category":null,"correct":1,"correct_response":"m","count_reset_feedback":0,"count_trial_sequence":20,"response_keyboard_response":"m","response_time":106,"subject_nr":0,"target":null},
{"acc":100,"accuracy":100,"avg_rt":123,"category":null,"correct":1,"correct_response":"m","count_reset_feedback":0,"count_trial_sequence":21,"response_keyboard_response":"m","response_time":123,"subject_nr":0,"target":null},
{"acc":100,"accuracy":100,"avg_rt":123,"category":null,"correct":1,"correct_response":"m","count_reset_feedback":0,"count_trial_sequence":22,"response_keyboard_response":"m","response_time":126,"subject_nr":0,"target":null},
{"acc":100,"accuracy":100,"avg_rt":122,"category":null,"correct":1,"correct_response":"m","count_reset_feedback":0,"count_trial_sequence":23,"response_keyboard_response":"m","response_time":117,"subject_nr":0,"target":null},
{"acc":100,"accuracy":100,"avg_rt":122,"category":null,"correct":1,"correct_response":"m","count_reset_feedback":0,"count_trial_sequence":24,"response_keyboard_response":"m","response_time":120,"subject_nr":0,"target":null},
{"acc":100,"accuracy":100,"avg_rt":122,"category":null,"correct":1,"correct_response":"m","count_reset_feedback":0,"count_trial_sequence":25,"response_keyboard_response":"m","response_time":120,"subject_nr":0,"target":null},
{"acc":100,"accuracy":100,"avg_rt":123,"category":null,"correct":1,"correct_response":"m","count_reset_feedback":0,"count_trial_sequence":26,"response_keyboard_response":"m","response_time":143,"subject_nr":0,"target":null},
{"acc":100,"accuracy":100,"avg_rt":123,"category":null,"correct":1,"correct_response":"m","count_reset_feedback":0,"count_trial_sequence":27,"response_keyboard_response":"m","response_time":117,"subject_nr":0,"target":null},
{"acc":100,"accuracy":100,"avg_rt":123,"category":null,"correct":1,"correct_response":"m","count_reset_feedback":0,"count_trial_sequence":28,"response_keyboard_response":"m","response_time":131,"subject_nr":0,"target":null},
{"acc":100,"accuracy":100,"avg_rt":123,"category":null,"correct":1,"correct_response":"m","count_reset_feedback":0,"count_trial_sequence":29,"response_keyboard_response":"m","response_time":123,"subject_nr":0,"target":null},
{"acc":100,"accuracy":100,"avg_rt":123,"category":null,"correct":1,"correct_response":"m","count_reset_feedback":0,"count_trial_sequence":30,"response_keyboard_response":"m","response_time":122,"subject_nr":0,"target":null},
{"acc":100,"accuracy":100,"avg_rt":123,"category":null,"correct":1,"correct_response":"m","count_reset_feedback":0,"count_trial_sequence":31,"response_keyboard_response":"m","response_time":124,"subject_nr":0,"target":null},
{"acc":100,"accuracy":100,"avg_rt":123,"category":null,"correct":1,"correct_response":"m","count_reset_feedback":0,"count_trial_sequence":32,"response_keyboard_response":"m","response_time":127,"subject_nr":0,"target":null},
{"acc":100,"accuracy":100,"avg_rt":123,"category":null,"correct":1,"correct_response":"m","count_reset_feedback":0,"count_trial_sequence":33,"response_keyboard_response":"m","response_time":128,"subject_nr":0,"target":null},
{"acc":100,"accuracy":100,"avg_rt":123,"category":null,"correct":1,"correct_response":"m","count_reset_feedback":0,"count_trial_sequence":34,"response_keyboard_response":"m","response_time":119,"subject_nr":0,"target":null},
{"acc":100,"accuracy":100,"avg_rt":123,"category":null,"correct":1,"correct_response":"m","count_reset_feedback":0,"count_trial_sequence":35,"response_keyboard_response":"m","response_time":131,"subject_nr":0,"target":null},
{"acc":100,"accuracy":100,"avg_rt":123,"category":null,"correct":1,"correct_response":"m","count_reset_feedback":0,"count_trial_sequence":36,"response_keyboard_response":"m","response_time":121,"subject_nr":0,"target":null},
{"acc":100,"accuracy":100,"avg_rt":123,"category":null,"correct":1,"correct_response":"m","count_reset_feedback":0,"count_trial_sequence":37,"response_keyboard_response":"m","response_time":123,"subject_nr":0,"target":null},
{"acc":100,"accuracy":100,"avg_rt":124,"category":null,"correct":1,"correct_response":"m","count_reset_feedback":0,"count_trial_sequence":38,"response_keyboard_response":"m","response_time":135,"subject_nr":0,"target":null},
{"acc":100,"accuracy":100,"avg_rt":124,"category":null,"correct":1,"correct_response":"m","count_reset_feedback":0,"count_trial_sequence":39,"response_keyboard_response":"m","response_time":131,"subject_nr":0,"target":null},
{"acc":100,"accuracy":100,"avg_rt":124,"category":null,"correct":1,"correct_response":"m","count_reset_feedback":0,"count_trial_sequence":40,"response_keyboard_response":"m","response_time":116,"subject_nr":0,"target":null},
{"acc":100,"accuracy":100,"avg_rt":123,"category":null,"correct":1,"correct_response":"m","count_reset_feedback":0,"count_trial_sequence":41,"response_keyboard_response":"m","response_time":105,"subject_nr":0,"target":null},
{"acc":100,"accuracy":100,"avg_rt":124,"category":null,"correct":1,"correct_response":"m","count_reset_feedback":0,"count_trial_sequence":42,"response_keyboard_response":"m","response_time":147,"subject_nr":0,"target":null},
{"acc":100,"accuracy":100,"avg_rt":124,"category":null,"correct":1,"correct_response":"m","count_reset_feedback":0,"count_trial_sequence":43,"response_keyboard_response":"m","response_time":122,"subject_nr":0,"target":null},
{"acc":100,"accuracy":100,"avg_rt":124,"category":null,"correct":1,"correct_response":"m","count_reset_feedback":0,"count_trial_sequence":44,"response_keyboard_response":"m","response_time":120,"subject_nr":0,"target":null},
{"acc":100,"accuracy":100,"avg_rt":124,"category":null,"correct":1,"correct_response":"m","count_reset_feedback":0,"count_trial_sequence":45,"response_keyboard_response":"m","response_time":134,"subject_nr":0,"target":null},
{"acc":100,"accuracy":100,"avg_rt":124,"category":null,"correct":1,"correct_response":"m","count_reset_feedback":0,"count_trial_sequence":46,"response_keyboard_response":"m","response_time":108,"subject_nr":0,"target":null},
{"acc":100,"accuracy":100,"avg_rt":123,"category":null,"correct":1,"correct_response":"m","count_reset_feedback":0,"count_trial_sequence":47,"response_keyboard_response":"m","response_time":115,"subject_nr":0,"target":null},
{"acc":100,"accuracy":100,"avg_rt":123,"category":null,"correct":1,"correct_response":"m","count_reset_feedback":0,"count_trial_sequence":48,"response_keyboard_response":"m","response_time":127,"subject_nr":0,"target":null},
{"acc":100,"accuracy":100,"avg_rt":123,"category":null,"correct":1,"correct_response":"m","count_reset_feedback":0,"count_trial_sequence":49,"response_keyboard_response":"m","response_time":108,"subject_nr":0,"target":null},

{"data":[{"acc":100,"accuracy":100,"avg_rt":153,"category":null,"correct":1,"correct_response":"m","count_reset_feedback":0,"count_trial_sequence":0,"response_keyboard_response":"m","response_time":153,"subject_nr":1,"target":null},{"acc":100,"accuracy":100,"avg_rt":131,"category":null,"correct":1,"correct_response":"m","count_reset_feedback":0,"count_trial_sequence":1,"response_keyboard_response":"m","response_time":109,"subject_nr":1,"target":null},{"acc":100,"accuracy":100,"avg_rt":130,"category":null,"correct":1,"correct_response":"m","count_reset_feedback":0,"count_trial_sequence":2,"response_keyboard_response":"m","response_time":128,"subject_nr":1,"target":null},{"acc":100,"accuracy":100,"avg_rt":127,"category":null,"correct":1,"correct_response":"m","count_reset_feedback":0,"count_trial_sequence":3,"response_keyboard_response":"m","response_time":119,"subject_nr":1,"target":null},{"acc":100,"accuracy":100,"avg_rt":126,"category":null,"correct":1,"correct_response":"m","count_reset_feedback":0,"count_trial_sequence":4,"response_keyboard_response":"m","response_time":120,"subject_nr":1,"target":null},{"acc":100,"accuracy":100,"avg_rt":125,"category":null,"correct":1,"correct_response":"m","count_reset_feedback":0,"count_trial_sequence":5,"response_keyboard_response":"m","response_time":118,"subject_nr":1,"target":null},{"acc":100,"accuracy":100,"avg_rt":124,"category":null,"correct":1,"correct_response":"m","count_reset_feedback":0,"count_trial_sequence":6,"response_keyboard_response":"m","response_time":122,"subject_nr":1,"target":null},{"acc":100,"accuracy":100,"avg_rt":123,"category":null,"correct":1,"correct_response":"m","count_reset_feedback":0,"count_trial_sequence":7,"response_keyboard_response":"m","response_time":113,"subject_nr":1,"target":null},{"acc":100,"accuracy":100,"avg_rt":124,"category":null,"correct":1,"correct_response":"m","count_reset_feedback":0,"count_trial_sequence":8,"response_keyboard_response":"m","response_time":131,"subject_nr":1,"target":null},{"acc":100,"accuracy":100,"avg_rt":124,"category":null,"correct":1,"correct_response":"m","count_reset_feedback":0,"count_trial_sequence":9,"response_keyboard_response":"m","response_time":127,"subject_nr":1,"target":null},{"acc":100,"accuracy":100,"avg_rt":124,"category":null,"correct":1,"correct_response":"m","count_reset_feedback":0,"count_trial_sequence":10,"response_keyboard_response":"m","response_time":129,"subject_nr":1,"target":null},{"acc":100,"accuracy":100,"avg_rt":124,"category":null,"correct":1,"correct_response":"m","count_reset_feedback":0,"count_trial_sequence":11,"response_keyboard_response":"m","response_time":119,"subject_nr":1,"target":null},{"acc":100,"accuracy":100,"avg_rt":123,"category":null,"correct":1,"correct_response":"m","count_reset_feedback":0,"count_trial_sequence":12,"response_keyboard_response":"m","response_time":114,"subject_nr":1,"target":null},{"acc":100,"accuracy":100,"avg_rt":123,"category":null,"correct":1,"correct_response":"m","count_reset_feedback":0,"count_trial_sequence":13,"response_keyboard_response":"m","response_time":118,"subject_nr":1,"target":null},{"acc":100,"accuracy":100,"avg_rt":122,"category":null,"correct":1,"correct_response":"m","count_reset_feedback":0,"count_trial_sequence":14,"response_keyboard_response":"m","response_time":106,"subject_nr":1,"target":null},{"acc":100,"accuracy":100,"avg_rt":121,"category":null,"correct":1,"correct_response":"m","count_reset_feedback":0,"count_trial_sequence":15,"response_keyboard_response":"m","response_time":102,"subject_nr":1,"target":null},{"acc":100,"accuracy":100,"avg_rt":120,"category":null,"correct":1,"correct_response":"m","count_reset_feedback":0,"count_trial_sequence":16,"response_keyboard_response":"m","response_time":110,"subject_nr":1,"target":null},{"acc":100,"accuracy":100,"avg_rt":120,"category":null,"correct":1,"correct_response":"m","count_reset_feedback":0,"count_trial_sequence":17,"response_keyboard_response":"m","response_time":128,"subject_nr":1,"target":null},{"acc":100,"accuracy":100,"avg_rt":120,"category":null,"correct":1,"correct_response":"m","count_reset_feedback":0,"count_trial_sequence":18,"response_keyboard_response":"m","response_time":119,"subject_nr":1,"target":null},{"acc":100,"accuracy":100,"avg_rt":120,"category":null,"correct":1,"correct_response":"m","count_reset_feedback":0,"count_trial_sequence":19,"response_keyboard_response":"m","response_time":107,"subject_nr":1,"target":null},{"acc":100,"accuracy":100,"avg_rt":120,"category":null,"correct":1,"correct_response":"m","count_reset_feedback":0,"count_trial_sequence":20,"response_keyboard_response":"m","response_time":138,"subject_nr":1,"target":null},{"acc":100,"accuracy":100,"avg_rt":121,"category":null,"correct":1,"correct_response":"m","count_reset_feedback":0,"count_trial_sequence":21,"response_keyboard_response":"m","response_time":122,"subject_nr":1,"target":null},{"acc":100,"accuracy":100,"avg_rt":121,"category":null,"correct":1,"correct_response":"m","count_reset_feedback":0,"count_trial_sequence":22,"response_keyboard_response":"m","response_time":123,"subject_nr":1,"target":null},{"acc":100,"accuracy":100,"avg_rt":122,"category":null,"correct":1,"correct_response":"m","count_reset_feedback":0,"count_trial_sequence":23,"response_keyboard_response":"m","response_time":148,"subject_nr":1,"target":null},{"acc":100,"accuracy":100,"avg_rt":121,"category":null,"correct":1,"correct_response":"m","count_reset_feedback":0,"count_trial_sequence":24,"response_keyboard_response":"m","response_time":106,"subject_nr":1,"target":null},{"acc":100,"accuracy":100,"avg_rt":121,"category":null,"correct":1,"correct_response":"m","count_reset_feedback":0,"count_trial_sequence":25,"response_keyboard_response":"m","response_time":124,"subject_nr":1,"target":null},{"acc":100,"accuracy":100,"avg_rt":120,"category":null,"correct":1,"correct_response":"m","count_reset_feedback":0,"count_trial_sequence":26,"response_keyboard_response":"m","response_time":91,"subject_nr":1,"target":null},{"acc":100,"accuracy":100,"avg_rt":122,"category":null,"correct":1,"correct_response":"m","count_reset_feedback":0,"count_trial_sequence":27,"response_keyboard_response":"m","response_time":183,"subject_nr":1,"target":null},{"acc":100,"accuracy":100,"avg_rt":122,"category":null,"correct":1,"correct_response":"m","count_reset_feedback":0,"count_trial_sequence":28,"response_keyboard_response":"m","response_time":119,"subject_nr":1,"target":null},{"acc":100,"accuracy":100,"avg_rt":122,"category":null,"correct":1,"correct_response":"m","count_reset_feedback":0,"count_trial_sequence":29,"response_keyboard_response":"m","response_time":119,"subject_nr":1,"target":null},{"acc":100,"accuracy":100,"avg_rt":122,"category":null,"correct":1,"correct_response":"m","count_reset_feedback":0,"count_trial_sequence":30,"response_keyboard_response":"m","response_time":122,"subject_nr":1,"target":null},{"acc":100,"accuracy":100,"avg_rt":122,"category":null,"correct":1,"correct_response":"m","count_reset_feedback":0,"count_trial_sequence":31,"response_keyboard_response":"m","response_time":122,"subject_nr":1,"target":null},{"acc":100,"accuracy":100,"avg_rt":122,"category":null,"correct":1,"correct_response":"m","count_reset_feedback":0,"count_trial_sequence":32,"response_keyboard_response":"m","response_time":124,"subject_nr":1,"target":null},{"acc":100,"accuracy":100,"avg_rt":123,"category":null,"correct":1,"correct_response":"m","count_reset_feedback":0,"count_trial_sequence":33,"response_keyboard_response":"m","response_time":137,"subject_nr":1,"target":null},{"acc":100,"accuracy":100,"avg_rt":123,"category":null,"correct":1,"correct_response":"m","count_reset_feedback":0,"count_trial_sequence":34,"response_keyboard_response":"m","response_time":120,"subject_nr":1,"target":null},{"acc":100,"accuracy":100,"avg_rt":124,"category":null,"correct":1,"correct_response":"m","count_reset_feedback":0,"count_trial_sequence":35,"response_keyboard_response":"m","response_time":157,"subject_nr":1,"target":null},{"acc":100,"accuracy":100,"avg_rt":123,"category":null,"correct":1,"correct_response":"m","count_reset_feedback":0,"count_trial_sequence":36,"response_keyboard_response":"m","response_time":113,"subject_nr":1,"target":null},{"acc":100,"accuracy":100,"avg_rt":124,"category":null,"correct":1,"correct_response":"m","count_reset_feedback":0,"count_trial_sequence":37,"response_keyboard_response":"m","response_time":152,"subject_nr":1,"target":null},{"acc":100,"accuracy":100,"avg_rt":124,"category":null,"correct":1,"correct_response":"m","count_reset_feedback":0,"count_trial_sequence":38,"response_keyboard_response":"m","response_time":109,"subject_nr":1,"target":null},{"acc":100,"accuracy":100,"avg_rt":124,"category":null,"correct":1,"correct_response":"m","count_reset_feedback":0,"count_trial_sequence":39,"response_keyboard_response":"m","response_time":139,"subject_nr":1,"target":null},{"acc":100,"accuracy":100,"avg_rt":124,"category":null,"correct":1,"correct_response":"m","count_reset_feedback":0,"count_trial_sequence":40,"response_keyboard_response":"m","response_time":124,"subject_nr":1,"target":null},{"acc":100,"accuracy":100,"avg_rt":124,"category":null,"correct":1,"correct_response":"m","count_reset_feedback":0,"count_trial_sequence":41,"response_keyboard_response":"m","response_time":138,"subject_nr":1,"target":null},{"acc":100,"accuracy":100,"avg_rt":125,"category":null,"correct":1,"correct_response":"m","count_reset_feedback":0,"count_trial_sequence":42,"response_keyboard_response":"m","response_time":133,"subject_nr":1,"target":null},{"acc":100,"accuracy":100,"avg_rt":124,"category":null,"correct":1,"correct_response":"m","count_reset_feedback":0,"count_trial_sequence":43,"response_keyboard_response":"m","response_time":121,"subject_nr":1,"target":null},{"acc":100,"accuracy":100,"avg_rt":124,"category":null,"correct":1,"correct_response":"m","count_reset_feedback":0,"count_trial_sequence":44,"response_keyboard_response":"m","response_time":120,"subject_nr":1,"target":null},{"acc":100,"accuracy":100,"avg_rt":124,"category":null,"correct":1,"correct_response":"m","count_reset_feedback":0,"count_trial_sequence":45,"response_keyboard_response":"m","response_time":123,"subject_nr":1,"target":null},{"acc":100,"accuracy":100,"avg_rt":125,"category":null,"correct":1,"correct_response":"m","count_reset_feedback":0,"count_trial_sequence":46,"response_keyboard_response":"m","response_time":135,"subject_nr":1,"target":null},{"acc":100,"accuracy":100,"avg_rt":125,"category":null,"correct":1,"correct_response":"m","count_reset_feedback":0,"count_trial_sequence":47,"response_keyboard_response":"m","response_time":130,"subject_nr":1,"target":null},{"acc":100,"accuracy":100,"avg_rt":124,"category":null,"correct":1,"correct_response":"m","count_reset_feedback":0,"count_trial_sequence":48,"response_keyboard_response":"m","response_time":116,"subject_nr":1,"target":null},{"acc":100,"accuracy":100,"avg_rt":124,"category":null,"correct":1,"correct_response":"m","count_reset_feedback":0,"count_trial_sequence":49,"response_keyboard_response":"m","response_time":107,"subject_nr":1,"target":null}],"context":{"browser":{"codename":"Mozilla","name":"Netscape","version":"5.0 (Macintosh)"},"date":{"startdate":"27-05-22","starttime":"14:33:09","startdateUTC":"27-05-22"},"experiment":{"debug":0,"parameters":0,"pilot":0,"taskname":0,"taskversion":0},"screen":{"availableHeight":1175,"availableWidth":1920,"colorDepth":30,"height":1200,"pixelDepth":30,"screenX":277,"screenY":114,"width":1920},"system":{"os":"MacIntel"},"jatosVersion":"3.6.1","jatosStudyResultId":"620","queryParams":{"generalMultiple":"","batchId":"226"}}}
{"data":[{"acc":100,"accuracy":100,"avg_rt":311,"category":null,"correct":1,"correct_response":"m","count_reset_feedback":0,"count_trial_sequence":0,"response_keyboard_response":"m","response_time":311,"subject_nr":0,"target":null},{"acc":100,"accuracy":100,"avg_rt":203,"category":null,"correct":1,"correct_response":"m","count_reset_feedback":0,"count_trial_sequence":1,"response_keyboard_response":"m","response_time":94,"subject_nr":0,"target":null},{"acc":100,"accuracy":100,"avg_rt":178,"category":null,"correct":1,"correct_response":"m","count_reset_feedback":0,"count_trial_sequence":2,"response_keyboard_response":"m","response_time":129,"subject_nr":0,"target":null},{"acc":100,"accuracy":100,"avg_rt":163,"category":null,"correct":1,"correct_response":"m","count_reset_feedback":0,"count_trial_sequence":3,"response_keyboard_response":"m","response_time":116,"subject_nr":0,"target":null},{"acc":100,"accuracy":100,"avg_rt":154,"category":null,"correct":1,"correct_response":"m","count_reset_feedback":0,"count_trial_sequence":4,"response_keyboard_response":"m","response_time":118,"subject_nr":0,"target":null},{"acc":100,"accuracy":100,"avg_rt":152,"category":null,"correct":1,"correct_response":"m","count_reset_feedback":0,"count_trial_sequence":5,"response_keyboard_response":"m","response_time":141,"subject_nr":0,"target":null},{"acc":100,"accuracy":100,"avg_rt":148,"category":null,"correct":1,"correct_response":"m","count_reset_feedback":0,"count_trial_sequence":6,"response_keyboard_response":"m","response_time":125,"subject_nr":0,"target":null},{"acc":100,"accuracy":100,"avg_rt":144,"category":null,"correct":1,"correct_response":"m","count_reset_feedback":0,"count_trial_sequence":7,"response_keyboard_response":"m","response_time":115,"subject_nr":0,"target":null},{"acc":100,"accuracy":100,"avg_rt":143,"category":null,"correct":1,"correct_response":"m","count_reset_feedback":0,"count_trial_sequence":8,"response_keyboard_response":"m","response_time":140,"subject_nr":0,"target":null},{"acc":100,"accuracy":100,"avg_rt":142,"category":null,"correct":1,"correct_response":"m","count_reset_feedback":0,"count_trial_sequence":9,"response_keyboard_response":"m","response_time":126,"subject_nr":0,"target":null},{"acc":100,"accuracy":100,"avg_rt":140,"category":null,"correct":1,"correct_response":"m","count_reset_feedback":0,"count_trial_sequence":10,"response_keyboard_response":"m","response_time":127,"subject_nr":0,"target":null},{"acc":100,"accuracy":100,"avg_rt":140,"category":null,"correct":1,"correct_response":"m","count_reset_feedback":0,"count_trial_sequence":11,"response_keyboard_response":"m","response_time":140,"subject_nr":0,"target":null},{"acc":100,"accuracy":100,"avg_rt":139,"category":null,"correct":1,"correct_response":"m","count_reset_feedback":0,"count_trial_sequence":12,"response_keyboard_response":"m","response_time":124,"subject_nr":0,"target":null},{"acc":100,"accuracy":100,"avg_rt":138,"category":null,"correct":1,"correct_response":"m","count_reset_feedback":0,"count_trial_sequence":13,"response_keyboard_response":"m","response_time":127,"subject_nr":0,"target":null},{"acc":100,"accuracy":100,"avg_rt":139,"category":null,"correct":1,"correct_response":"m","count_reset_feedback":0,"count_trial_sequence":14,"response_keyboard_response":"m","response_time":150,"subject_nr":0,"target":null},{"acc":100,"accuracy":100,"avg_rt":139,"category":null,"correct":1,"correct_response":"m","count_reset_feedback":0,"count_trial_sequence":15,"response_keyboard_response":"m","response_time":143,"subject_nr":0,"target":null},{"acc":100,"accuracy":100,"avg_rt":138,"category":null,"correct":1,"correct_response":"m","count_reset_feedback":0,"count_trial_sequence":16,"response_keyboard_response":"m","response_time":126,"subject_nr":0,"target":null},{"acc":100,"accuracy":100,"avg_rt":138,"category":null,"correct":1,"correct_response":"m","count_reset_feedback":0,"count_trial_sequence":17,"response_keyboard_response":"m","response_time":128,"subject_nr":0,"target":null},{"acc":100,"accuracy":100,"avg_rt":139,"category":null,"correct":1,"correct_response":"m","count_reset_feedback":0,"count_trial_sequence":18,"response_keyboard_response":"m","response_time":152,"subject_nr":0,"target":null},{"acc":100,"accuracy":100,"avg_rt":138,"category":null,"correct":1,"correct_response":"m","count_reset_feedback":0,"count_trial_sequence":19,"response_keyboard_response":"m","response_time":129,"subject_nr":0,"target":null},{"acc":100,"accuracy":100,"avg_rt":137,"category":null,"correct":1,"correct_response":"m","count_reset_feedback":0,"count_trial_sequence":20,"response_keyboard_response":"m","response_time":117,"subject_nr":0,"target":null},{"acc":100,"accuracy":100,"avg_rt":136,"category":null,"correct":1,"correct_response":"m","count_reset_feedback":0,"count_trial_sequence":21,"response_keyboard_response":"m","response_time":119,"subject_nr":0,"target":null},{"acc":100,"accuracy":100,"avg_rt":136,"category":null,"correct":1,"correct_response":"m","count_reset_feedback":0,"count_trial_sequence":22,"response_keyboard_response":"m","response_time":130,"subject_nr":0,"target":null},{"acc":100,"accuracy":100,"avg_rt":136,"category":null,"correct":1,"correct_response":"m","count_reset_feedback":0,"count_trial_sequence":23,"response_keyboard_response":"m","response_time":144,"subject_nr":0,"target":null},{"acc":100,"accuracy":100,"avg_rt":136,"category":null,"correct":1,"correct_response":"m","count_reset_feedback":0,"count_trial_sequence":24,"response_keyboard_response":"m","response_time":139,"subject_nr":0,"target":null},{"acc":100,"accuracy":100,"avg_rt":137,"category":null,"correct":1,"correct_response":"m","count_reset_feedback":0,"count_trial_sequence":25,"response_keyboard_response":"m","response_time":147,"subject_nr":0,"target":null},{"acc":100,"accuracy":100,"avg_rt":137,"category":null,"correct":1,"correct_response":"m","count_reset_feedback":0,"count_trial_sequence":26,"response_keyboard_response":"m","response_time":133,"subject_nr":0,"target":null},{"acc":100,"accuracy":100,"avg_rt":136,"category":null,"correct":1,"correct_response":"m","count_reset_feedback":0,"count_trial_sequence":27,"response_keyboard_response":"m","response_time":117,"subject_nr":0,"target":null},{"acc":100,"accuracy":100,"avg_rt":135,"category":null,"correct":1,"correct_response":"m","count_reset_feedback":0,"count_trial_sequence":28,"response_keyboard_response":"m","response_time":119,"subject_nr":0,"target":null},{"acc":100,"accuracy":100,"avg_rt":135,"category":null,"correct":1,"correct_response":"m","count_reset_feedback":0,"count_trial_sequence":29,"response_keyboard_response":"m","response_time":132,"subject_nr":0,"target":null},{"acc":100,"accuracy":100,"avg_rt":136,"category":null,"correct":1,"correct_response":"m","count_reset_feedback":0,"count_trial_sequence":30,"response_keyboard_response":"m","response_time":167,"subject_nr":0,"target":null},{"acc":100,"accuracy":100,"avg_rt":135,"category":null,"correct":1,"correct_response":"m","count_reset_feedback":0,"count_trial_sequence":31,"response_keyboard_response":"m","response_time":107,"subject_nr":0,"target":null},{"acc":100,"accuracy":100,"avg_rt":135,"category":null,"correct":1,"correct_response":"m","count_reset_feedback":0,"count_trial_sequence":32,"response_keyboard_response":"m","response_time":136,"subject_nr":0,"target":null},{"acc":100,"accuracy":100,"avg_rt":135,"category":null,"correct":1,"correct_response":"m","count_reset_feedback":0,"count_trial_sequence":33,"response_keyboard_response":"m","response_time":133,"subject_nr":0,"target":null},{"acc":100,"accuracy":100,"avg_rt":135,"category":null,"correct":1,"correct_response":"m","count_reset_feedback":0,"count_trial_sequence":34,"response_keyboard_response":"m","response_time":139,"subject_nr":0,"target":null},{"acc":100,"accuracy":100,"avg_rt":137,"category":null,"correct":1,"correct_response":"m","count_reset_feedback":0,"count_trial_sequence":35,"response_keyboard_response":"m","response_time":204,"subject_nr":0,"target":null},{"acc":100,"accuracy":100,"avg_rt":135,"category":null,"correct":1,"correct_response":"m","count_reset_feedback":0,"count_trial_sequence":36,"response_keyboard_response":"m","response_time":67,"subject_nr":0,"target":null},{"acc":100,"accuracy":100,"avg_rt":135,"category":null,"correct":1,"correct_response":"m","count_reset_feedback":0,"count_trial_sequence":37,"response_keyboard_response":"m","response_time":107,"subject_nr":0,"target":null},{"acc":100,"accuracy":100,"avg_rt":135,"category":null,"correct":1,"correct_response":"m","count_reset_feedback":0,"count_trial_sequence":38,"response_keyboard_response":"m","response_time":135,"subject_nr":0,"target":null},{"acc":100,"accuracy":100,"avg_rt":135,"category":null,"correct":1,"correct_response":"m","count_reset_feedback":0,"count_trial_sequence":39,"response_keyboard_response":"m","response_time":143,"subject_nr":0,"target":null},{"acc":100,"accuracy":100,"avg_rt":135,"category":null,"correct":1,"correct_response":"m","count_reset_feedback":0,"count_trial_sequence":40,"response_keyboard_response":"m","response_time":138,"subject_nr":0,"target":null},{"acc":100,"accuracy":100,"avg_rt":135,"category":null,"correct":1,"correct_response":"m","count_reset_feedback":0,"count_trial_sequence":41,"response_keyboard_response":"m","response_time":134,"subject_nr":0,"target":null},{"acc":100,"accuracy":100,"avg_rt":135,"category":null,"correct":1,"correct_response":"m","count_reset_feedback":0,"count_trial_sequence":42,"response_keyboard_response":"m","response_time":120,"subject_nr":0,"target":null},{"acc":100,"accuracy":100,"avg_rt":135,"category":null,"correct":1,"correct_response":"m","count_reset_feedback":0,"count_trial_sequence":43,"response_keyboard_response":"m","response_time":143,"subject_nr":0,"target":null},{"acc":100,"accuracy":100,"avg_rt":135,"category":null,"correct":1,"correct_response":"m","count_reset_feedback":0,"count_trial_sequence":44,"response_keyboard_response":"m","response_time":128,"subject_nr":0,"target":null},{"acc":100,"accuracy":100,"avg_rt":135,"category":null,"correct":1,"correct_response":"m","count_reset_feedback":0,"count_trial_sequence":45,"response_keyboard_response":"m","response_time":142,"subject_nr":0,"target":null},{"acc":100,"accuracy":100,"avg_rt":135,"category":null,"correct":1,"correct_response":"m","count_reset_feedback":0,"count_trial_sequence":46,"response_keyboard_response":"m","response_time":125,"subject_nr":0,"target":null},{"acc":100,"accuracy":100,"avg_rt":135,"category":null,"correct":1,"correct_response":"m","count_reset_feedback":0,"count_trial_sequence":47,"response_keyboard_response":"m","response_time":140,"subject_nr":0,"target":null},{"acc":100,"accuracy":100,"avg_rt":135,"category":null,"correct":1,"correct_response":"m","count_reset_feedback":0,"count_trial_sequence":48,"response_keyboard_response":"m","response_time":135,"subject_nr":0,"target":null},{"acc":100,"accuracy":100,"avg_rt":135,"category":null,"correct":1,"correct_response":"m","count_reset_feedback":0,"count_trial_sequence":49,"response_keyboard_response":"m","response_time":131,"subject_nr":0,"target":null}],"context":{"browser":{"codename":"Mozilla","name":"Netscape","version":"5.0 (Macintosh)"},"date":{"startdate":"27-05-22","starttime":"14:32:36","startdateUTC":"27-05-22"},"experiment":{"debug":0,"parameters":0,"pilot":0,"taskname":0,"taskversion":0},"screen":{"availableHeight":1175,"availableWidth":1920,"colorDepth":30,"height":1200,"pixelDepth":30,"screenX":277,"screenY":114,"width":1920},"system":{"os":"MacIntel"},"jatosVersion":"3.6.1","jatosStudyResultId":"619","queryParams":{"generalMultiple":"","batchId":"226"}}}
