[{"acc":100,"accuracy":100,"avg_rt":100,"category":null,"correct":1,"correct_response":"m","count_reset_feedback":0,"count_trial_sequence":0,"response_keyboard_response":"m","response_time":100,"subject_nr":0,"target":null},
{"acc":100,"accuracy":100,"avg_rt":122,"category":null,"correct":1,"correct_response":"m","count_reset_feedback":0,"count_trial_sequence":1,"response_keyboard_response":"m","response_time":143,"subject_nr":0,"target":null},
{"acc":100,"accuracy":100,"avg_rt":117,"category":null,"correct":1,"correct_response":"m","count_reset_feedback":0,"count_trial_sequence":2,"response_keyboard_response":"m","response_time":109,"subject_nr":0,"target":null},
{"acc":100,"accuracy":100,"avg_rt":121,"category":null,"correct":1,"correct_response":"m","count_reset_feedback":0,"count_trial_sequence":3,"response_keyboard_response":"m","response_time":132,"subject_nr":0,"target":null},
{"acc":100,"accuracy":100,"avg_rt":118,"category":null,"correct":1,"correct_response":"m","count_reset_feedback":0,"count_trial_sequence":4,"response_keyboard_response":"m","response_time":108,"subject_nr":0,"target":null},
{"acc":100,"accuracy":100,"avg_rt":109,"category":null,"correct":1,"correct_response":"m","count_reset_feedback":0,"count_trial_sequence":5,"response_keyboard_response":"m","response_time":62,"subject_nr":0,"target":null},
{"acc":100,"accuracy":100,"avg_rt":110,"category":null,"correct":1,"correct_response":"m","count_reset_feedback":0,"count_trial_sequence":6,"response_keyboard_response":"m","response_time":117,"subject_nr":0,"target":null},
{"acc":100,"accuracy":100,"avg_rt":113,"category":null,"correct":1,"correct_response":"m","count_reset_feedback":0,"count_trial_sequence":7,"response_keyboard_response":"m","response_time":130,"subject_nr":0,"target":null},
{"acc":100,"accuracy":100,"avg_rt":114,"category":null,"correct":1,"correct_response":"m","count_reset_feedback":0,"count_trial_sequence":8,"response_keyboard_response":"m","response_time":124,"subject_nr":0,"target":null},
{"acc":100,"accuracy":100,"avg_rt":113,"category":null,"correct":1,"correct_response":"m","count_reset_feedback":0,"count_trial_sequence":9,"response_keyboard_response":"m","response_time":104,"subject_nr":0,"target":null},
{"acc":100,"accuracy":100,"avg_rt":114,"category":null,"correct":1,"correct_response":"m","count_reset_feedback":0,"count_trial_sequence":10,"response_keyboard_response":"m","response_time":127,"subject_nr":0,"target":null},
{"acc":100,"accuracy":100,"avg_rt":115,"category":null,"correct":1,"correct_response":"m","count_reset_feedback":0,"count_trial_sequence":11,"response_keyboard_response":"m","response_time":119,"subject_nr":0,"target":null},
{"acc":100,"accuracy":100,"avg_rt":115,"category":null,"correct":1,"correct_response":"m","count_reset_feedback":0,"count_trial_sequence":12,"response_keyboard_response":"m","response_time":121,"subject_nr":0,"target":null},
{"acc":100,"accuracy":100,"avg_rt":115,"category":null,"correct":1,"correct_response":"m","count_reset_feedback":0,"count_trial_sequence":13,"response_keyboard_response":"m","response_time":115,"subject_nr":0,"target":null},
{"acc":100,"accuracy":100,"avg_rt":116,"category":null,"correct":1,"correct_response":"m","count_reset_feedback":0,"count_trial_sequence":14,"response_keyboard_response":"m","response_time":134,"subject_nr":0,"target":null},
{"acc":100,"accuracy":100,"avg_rt":116,"category":null,"correct":1,"correct_response":"m","count_reset_feedback":0,"count_trial_sequence":15,"response_keyboard_response":"m","response_time":116,"subject_nr":0,"target":null},
{"acc":100,"accuracy":100,"avg_rt":118,"category":null,"correct":1,"correct_response":"m","count_reset_feedback":0,"count_trial_sequence":16,"response_keyboard_response":"m","response_time":145,"subject_nr":0,"target":null},
{"acc":100,"accuracy":100,"avg_rt":120,"category":null,"correct":1,"correct_response":"m","count_reset_feedback":0,"count_trial_sequence":17,"response_keyboard_response":"m","response_time":153,"subject_nr":0,"target":null},
{"acc":100,"accuracy":100,"avg_rt":121,"category":null,"correct":1,"correct_response":"m","count_reset_feedback":0,"count_trial_sequence":18,"response_keyboard_response":"m","response_time":137,"subject_nr":0,"target":null},
{"acc":100,"accuracy":100,"avg_rt":122,"category":null,"correct":1,"correct_response":"m","count_reset_feedback":0,"count_trial_sequence":19,"response_keyboard_response":"m","response_time":146,"subject_nr":0,"target":null},
{"acc":100,"accuracy":100,"avg_rt":122,"category":null,"correct":1,"correct_response":"m","count_reset_feedback":0,"count_trial_sequence":20,"response_keyboard_response":"m","response_time":121,"subject_nr":0,"target":null},
{"acc":100,"accuracy":100,"avg_rt":123,"category":null,"correct":1,"correct_response":"m","count_reset_feedback":0,"count_trial_sequence":21,"response_keyboard_response":"m","response_time":139,"subject_nr":0,"target":null},
{"acc":100,"accuracy":100,"avg_rt":124,"category":null,"correct":1,"correct_response":"m","count_reset_feedback":0,"count_trial_sequence":22,"response_keyboard_response":"m","response_time":146,"subject_nr":0,"target":null},
{"acc":100,"accuracy":100,"avg_rt":123,"category":null,"correct":1,"correct_response":"m","count_reset_feedback":0,"count_trial_sequence":23,"response_keyboard_response":"m","response_time":114,"subject_nr":0,"target":null},
{"acc":100,"accuracy":100,"avg_rt":122,"category":null,"correct":1,"correct_response":"m","count_reset_feedback":0,"count_trial_sequence":24,"response_keyboard_response":"m","response_time":98,"subject_nr":0,"target":null},
{"acc":100,"accuracy":100,"avg_rt":123,"category":null,"correct":1,"correct_response":"m","count_reset_feedback":0,"count_trial_sequence":25,"response_keyboard_response":"m","response_time":136,"subject_nr":0,"target":null},
{"acc":100,"accuracy":100,"avg_rt":122,"category":null,"correct":1,"correct_response":"m","count_reset_feedback":0,"count_trial_sequence":26,"response_keyboard_response":"m","response_time":104,"subject_nr":0,"target":null},
{"acc":100,"accuracy":100,"avg_rt":123,"category":null,"correct":1,"correct_response":"m","count_reset_feedback":0,"count_trial_sequence":27,"response_keyboard_response":"m","response_time":155,"subject_nr":0,"target":null},
{"acc":100,"accuracy":100,"avg_rt":124,"category":null,"correct":1,"correct_response":"m","count_reset_feedback":0,"count_trial_sequence":28,"response_keyboard_response":"m","response_time":134,"subject_nr":0,"target":null},
{"acc":100,"accuracy":100,"avg_rt":124,"category":null,"correct":1,"correct_response":"m","count_reset_feedback":0,"count_trial_sequence":29,"response_keyboard_response":"m","response_time":119,"subject_nr":0,"target":null},
{"acc":100,"accuracy":100,"avg_rt":124,"category":null,"correct":1,"correct_response":"m","count_reset_feedback":0,"count_trial_sequence":30,"response_keyboard_response":"m","response_time":133,"subject_nr":0,"target":null},
{"acc":100,"accuracy":100,"avg_rt":124,"category":null,"correct":1,"correct_response":"m","count_reset_feedback":0,"count_trial_sequence":31,"response_keyboard_response":"m","response_time":136,"subject_nr":0,"target":null},
{"acc":100,"accuracy":100,"avg_rt":125,"category":null,"correct":1,"correct_response":"m","count_reset_feedback":0,"count_trial_sequence":32,"response_keyboard_response":"m","response_time":161,"subject_nr":0,"target":null},
{"acc":100,"accuracy":100,"avg_rt":125,"category":null,"correct":1,"correct_response":"m","count_reset_feedback":0,"count_trial_sequence":33,"response_keyboard_response":"m","response_time":119,"subject_nr":0,"target":null},
{"acc":100,"accuracy":100,"avg_rt":125,"category":null,"correct":1,"correct_response":"m","count_reset_feedback":0,"count_trial_sequence":34,"response_keyboard_response":"m","response_time":131,"subject_nr":0,"target":null},
{"acc":100,"accuracy":100,"avg_rt":126,"category":null,"correct":1,"correct_response":"m","count_reset_feedback":0,"count_trial_sequence":35,"response_keyboard_response":"m","response_time":148,"subject_nr":0,"target":null},
{"acc":100,"accuracy":100,"avg_rt":127,"category":null,"correct":1,"correct_response":"m","count_reset_feedback":0,"count_trial_sequence":36,"response_keyboard_response":"m","response_time":146,"subject_nr":0,"target":null},
{"acc":100,"accuracy":100,"avg_rt":127,"category":null,"correct":1,"correct_response":"m","count_reset_feedback":0,"count_trial_sequence":37,"response_keyboard_response":"m","response_time":152,"subject_nr":0,"target":null},
{"acc":100,"accuracy":100,"avg_rt":127,"category":null,"correct":1,"correct_response":"m","count_reset_feedback":0,"count_trial_sequence":38,"response_keyboard_response":"m","response_time":136,"subject_nr":0,"target":null},
{"acc":100,"accuracy":100,"avg_rt":128,"category":null,"correct":1,"correct_response":"m","count_reset_feedback":0,"count_trial_sequence":39,"response_keyboard_response":"m","response_time":148,"subject_nr":0,"target":null},
{"acc":100,"accuracy":100,"avg_rt":128,"category":null,"correct":1,"correct_response":"m","count_reset_feedback":0,"count_trial_sequence":40,"response_keyboard_response":"m","response_time":142,"subject_nr":0,"target":null},
{"acc":100,"accuracy":100,"avg_rt":128,"category":null,"correct":1,"correct_response":"m","count_reset_feedback":0,"count_trial_sequence":41,"response_keyboard_response":"m","response_time":130,"subject_nr":0,"target":null},
{"acc":100,"accuracy":100,"avg_rt":129,"category":null,"correct":1,"correct_response":"m","count_reset_feedback":0,"count_trial_sequence":42,"response_keyboard_response":"m","response_time":148,"subject_nr":0,"target":null},
{"acc":100,"accuracy":100,"avg_rt":129,"category":null,"correct":1,"correct_response":"m","count_reset_feedback":0,"count_trial_sequence":43,"response_keyboard_response":"m","response_time":137,"subject_nr":0,"target":null},
{"acc":100,"accuracy":100,"avg_rt":129,"category":null,"correct":1,"correct_response":"m","count_reset_feedback":0,"count_trial_sequence":44,"response_keyboard_response":"m","response_time":124,"subject_nr":0,"target":null},
{"acc":100,"accuracy":100,"avg_rt":130,"category":null,"correct":1,"correct_response":"m","count_reset_feedback":0,"count_trial_sequence":45,"response_keyboard_response":"m","response_time":169,"subject_nr":0,"target":null},
{"acc":100,"accuracy":100,"avg_rt":129,"category":null,"correct":1,"correct_response":"m","count_reset_feedback":0,"count_trial_sequence":46,"response_keyboard_response":"m","response_time":117,"subject_nr":0,"target":null},
{"acc":100,"accuracy":100,"avg_rt":129,"category":null,"correct":1,"correct_response":"m","count_reset_feedback":0,"count_trial_sequence":47,"response_keyboard_response":"m","response_time":120,"subject_nr":0,"target":null},
{"acc":100,"accuracy":100,"avg_rt":130,"category":null,"correct":1,"correct_response":"m","count_reset_feedback":0,"count_trial_sequence":48,"response_keyboard_response":"m","response_time":144,"subject_nr":0,"target":null},
{"acc":100,"accuracy":100,"avg_rt":130,"category":null,"correct":1,"correct_response":"m","count_reset_feedback":0,"count_trial_sequence":49,"response_keyboard_response":"m","response_time":141,"subject_nr":0,"target":null},

[{"acc":100,"accuracy":100,"avg_rt":80,"category":null,"correct":1,"correct_response":"m","count_reset_feedback":0,"count_trial_sequence":0,"response_keyboard_response":"m","response_time":80,"subject_nr":1,"target":null},
{"acc":100,"accuracy":100,"avg_rt":101,"category":null,"correct":1,"correct_response":"m","count_reset_feedback":0,"count_trial_sequence":1,"response_keyboard_response":"m","response_time":122,"subject_nr":1,"target":null},
{"acc":100,"accuracy":100,"avg_rt":111,"category":null,"correct":1,"correct_response":"m","count_reset_feedback":0,"count_trial_sequence":2,"response_keyboard_response":"m","response_time":131,"subject_nr":1,"target":null},
{"acc":100,"accuracy":100,"avg_rt":112,"category":null,"correct":1,"correct_response":"m","count_reset_feedback":0,"count_trial_sequence":3,"response_keyboard_response":"m","response_time":115,"subject_nr":1,"target":null},
{"acc":100,"accuracy":100,"avg_rt":109,"category":null,"correct":1,"correct_response":"m","count_reset_feedback":0,"count_trial_sequence":4,"response_keyboard_response":"m","response_time":99,"subject_nr":1,"target":null},
{"acc":100,"accuracy":100,"avg_rt":108,"category":null,"correct":1,"correct_response":"m","count_reset_feedback":0,"count_trial_sequence":5,"response_keyboard_response":"m","response_time":103,"subject_nr":1,"target":null},
{"acc":100,"accuracy":100,"avg_rt":108,"category":null,"correct":1,"correct_response":"m","count_reset_feedback":0,"count_trial_sequence":6,"response_keyboard_response":"m","response_time":108,"subject_nr":1,"target":null},
{"acc":100,"accuracy":100,"avg_rt":109,"category":null,"correct":1,"correct_response":"m","count_reset_feedback":0,"count_trial_sequence":7,"response_keyboard_response":"m","response_time":113,"subject_nr":1,"target":null},
{"acc":100,"accuracy":100,"avg_rt":110,"category":null,"correct":1,"correct_response":"m","count_reset_feedback":0,"count_trial_sequence":8,"response_keyboard_response":"m","response_time":119,"subject_nr":1,"target":null},
{"acc":100,"accuracy":100,"avg_rt":112,"category":null,"correct":1,"correct_response":"m","count_reset_feedback":0,"count_trial_sequence":9,"response_keyboard_response":"m","response_time":133,"subject_nr":1,"target":null},
{"acc":100,"accuracy":100,"avg_rt":111,"category":null,"correct":1,"correct_response":"m","count_reset_feedback":0,"count_trial_sequence":10,"response_keyboard_response":"m","response_time":101,"subject_nr":1,"target":null},
{"acc":100,"accuracy":100,"avg_rt":111,"category":null,"correct":1,"correct_response":"m","count_reset_feedback":0,"count_trial_sequence":11,"response_keyboard_response":"m","response_time":105,"subject_nr":1,"target":null},
{"acc":100,"accuracy":100,"avg_rt":112,"category":null,"correct":1,"correct_response":"m","count_reset_feedback":0,"count_trial_sequence":12,"response_keyboard_response":"m","response_time":124,"subject_nr":1,"target":null},
{"acc":100,"accuracy":100,"avg_rt":113,"category":null,"correct":1,"correct_response":"m","count_reset_feedback":0,"count_trial_sequence":13,"response_keyboard_response":"m","response_time":130,"subject_nr":1,"target":null},
{"acc":100,"accuracy":100,"avg_rt":113,"category":null,"correct":1,"correct_response":"m","count_reset_feedback":0,"count_trial_sequence":14,"response_keyboard_response":"m","response_time":108,"subject_nr":1,"target":null},
{"acc":100,"accuracy":100,"avg_rt":114,"category":null,"correct":1,"correct_response":"m","count_reset_feedback":0,"count_trial_sequence":15,"response_keyboard_response":"m","response_time":129,"subject_nr":1,"target":null},
{"acc":100,"accuracy":100,"avg_rt":114,"category":null,"correct":1,"correct_response":"m","count_reset_feedback":0,"count_trial_sequence":16,"response_keyboard_response":"m","response_time":121,"subject_nr":1,"target":null},
{"acc":100,"accuracy":100,"avg_rt":115,"category":null,"correct":1,"correct_response":"m","count_reset_feedback":0,"count_trial_sequence":17,"response_keyboard_response":"m","response_time":122,"subject_nr":1,"target":null},
{"acc":100,"accuracy":100,"avg_rt":116,"category":null,"correct":1,"correct_response":"m","count_reset_feedback":0,"count_trial_sequence":18,"response_keyboard_response":"m","response_time":142,"subject_nr":1,"target":null},
{"acc":100,"accuracy":100,"avg_rt":116,"category":null,"correct":1,"correct_response":"m","count_reset_feedback":0,"count_trial_sequence":19,"response_keyboard_response":"m","response_time":118,"subject_nr":1,"target":null},
{"acc":100,"accuracy":100,"avg_rt":117,"category":null,"correct":1,"correct_response":"m","count_reset_feedback":0,"count_trial_sequence":20,"response_keyboard_response":"m","response_time":131,"subject_nr":1,"target":null},
{"acc":100,"accuracy":100,"avg_rt":117,"category":null,"correct":1,"correct_response":"m","count_reset_feedback":0,"count_trial_sequence":21,"response_keyboard_response":"m","response_time":114,"subject_nr":1,"target":null},
{"acc":100,"accuracy":100,"avg_rt":116,"category":null,"correct":1,"correct_response":"m","count_reset_feedback":0,"count_trial_sequence":22,"response_keyboard_response":"m","response_time":106,"subject_nr":1,"target":null},
{"acc":100,"accuracy":100,"avg_rt":116,"category":null,"correct":1,"correct_response":"m","count_reset_feedback":0,"count_trial_sequence":23,"response_keyboard_response":"m","response_time":103,"subject_nr":1,"target":null},
{"acc":100,"accuracy":100,"avg_rt":116,"category":null,"correct":1,"correct_response":"m","count_reset_feedback":0,"count_trial_sequence":24,"response_keyboard_response":"m","response_time":122,"subject_nr":1,"target":null},
{"acc":100,"accuracy":100,"avg_rt":116,"category":null,"correct":1,"correct_response":"m","count_reset_feedback":0,"count_trial_sequence":25,"response_keyboard_response":"m","response_time":129,"subject_nr":1,"target":null},
{"acc":100,"accuracy":100,"avg_rt":117,"category":null,"correct":1,"correct_response":"m","count_reset_feedback":0,"count_trial_sequence":26,"response_keyboard_response":"m","response_time":123,"subject_nr":1,"target":null},
{"acc":100,"accuracy":100,"avg_rt":117,"category":null,"correct":1,"correct_response":"m","count_reset_feedback":0,"count_trial_sequence":27,"response_keyboard_response":"m","response_time":137,"subject_nr":1,"target":null},
{"acc":100,"accuracy":100,"avg_rt":118,"category":null,"correct":1,"correct_response":"m","count_reset_feedback":0,"count_trial_sequence":28,"response_keyboard_response":"m","response_time":125,"subject_nr":1,"target":null},
{"acc":100,"accuracy":100,"avg_rt":118,"category":null,"correct":1,"correct_response":"m","count_reset_feedback":0,"count_trial_sequence":29,"response_keyboard_response":"m","response_time":132,"subject_nr":1,"target":null},
{"acc":100,"accuracy":100,"avg_rt":118,"category":null,"correct":1,"correct_response":"m","count_reset_feedback":0,"count_trial_sequence":30,"response_keyboard_response":"m","response_time":115,"subject_nr":1,"target":null},
{"acc":100,"accuracy":100,"avg_rt":118,"category":null,"correct":1,"correct_response":"m","count_reset_feedback":0,"count_trial_sequence":31,"response_keyboard_response":"m","response_time":118,"subject_nr":1,"target":null},
{"acc":100,"accuracy":100,"avg_rt":118,"category":null,"correct":1,"correct_response":"m","count_reset_feedback":0,"count_trial_sequence":32,"response_keyboard_response":"m","response_time":119,"subject_nr":1,"target":null},
{"acc":100,"accuracy":100,"avg_rt":119,"category":null,"correct":1,"correct_response":"m","count_reset_feedback":0,"count_trial_sequence":33,"response_keyboard_response":"m","response_time":149,"subject_nr":1,"target":null},
{"acc":100,"accuracy":100,"avg_rt":119,"category":null,"correct":1,"correct_response":"m","count_reset_feedback":0,"count_trial_sequence":34,"response_keyboard_response":"m","response_time":112,"subject_nr":1,"target":null},
{"acc":100,"accuracy":100,"avg_rt":119,"category":null,"correct":1,"correct_response":"m","count_reset_feedback":0,"count_trial_sequence":35,"response_keyboard_response":"m","response_time":123,"subject_nr":1,"target":null},
{"acc":100,"accuracy":100,"avg_rt":120,"category":null,"correct":1,"correct_response":"m","count_reset_feedback":0,"count_trial_sequence":36,"response_keyboard_response":"m","response_time":146,"subject_nr":1,"target":null},
{"acc":100,"accuracy":100,"avg_rt":120,"category":null,"correct":1,"correct_response":"m","count_reset_feedback":0,"count_trial_sequence":37,"response_keyboard_response":"m","response_time":123,"subject_nr":1,"target":null},
{"acc":100,"accuracy":100,"avg_rt":120,"category":null,"correct":1,"correct_response":"m","count_reset_feedback":0,"count_trial_sequence":38,"response_keyboard_response":"m","response_time":148,"subject_nr":1,"target":null},
{"acc":100,"accuracy":100,"avg_rt":121,"category":null,"correct":1,"correct_response":"m","count_reset_feedback":0,"count_trial_sequence":39,"response_keyboard_response":"m","response_time":129,"subject_nr":1,"target":null},
{"acc":100,"accuracy":100,"avg_rt":121,"category":null,"correct":1,"correct_response":"m","count_reset_feedback":0,"count_trial_sequence":40,"response_keyboard_response":"m","response_time":114,"subject_nr":1,"target":null},
{"acc":100,"accuracy":100,"avg_rt":121,"category":null,"correct":1,"correct_response":"m","count_reset_feedback":0,"count_trial_sequence":41,"response_keyboard_response":"m","response_time":146,"subject_nr":1,"target":null},
{"acc":100,"accuracy":100,"avg_rt":122,"category":null,"correct":1,"correct_response":"m","count_reset_feedback":0,"count_trial_sequence":42,"response_keyboard_response":"m","response_time":145,"subject_nr":1,"target":null},
{"acc":100,"accuracy":100,"avg_rt":122,"category":null,"correct":1,"correct_response":"m","count_reset_feedback":0,"count_trial_sequence":43,"response_keyboard_response":"m","response_time":128,"subject_nr":1,"target":null},
{"acc":100,"accuracy":100,"avg_rt":122,"category":null,"correct":1,"correct_response":"m","count_reset_feedback":0,"count_trial_sequence":44,"response_keyboard_response":"m","response_time":131,"subject_nr":1,"target":null},
{"acc":100,"accuracy":100,"avg_rt":122,"category":null,"correct":1,"correct_response":"m","count_reset_feedback":0,"count_trial_sequence":45,"response_keyboard_response":"m","response_time":117,"subject_nr":1,"target":null},
{"acc":100,"accuracy":100,"avg_rt":122,"category":null,"correct":1,"correct_response":"m","count_reset_feedback":0,"count_trial_sequence":46,"response_keyboard_response":"m","response_time":143,"subject_nr":1,"target":null},
{"acc":100,"accuracy":100,"avg_rt":123,"category":null,"correct":1,"correct_response":"m","count_reset_feedback":0,"count_trial_sequence":47,"response_keyboard_response":"m","response_time":147,"subject_nr":1,"target":null},
{"acc":100,"accuracy":100,"avg_rt":123,"category":null,"correct":1,"correct_response":"m","count_reset_feedback":0,"count_trial_sequence":48,"response_keyboard_response":"m","response_time":133,"subject_nr":1,"target":null},
{"acc":100,"accuracy":100,"avg_rt":123,"category":null,"correct":1,"correct_response":"m","count_reset_feedback":0,"count_trial_sequence":49,"response_keyboard_response":"m","response_time":123,"subject_nr":1,"target":null},

[{"acc":100,"accuracy":100,"avg_rt":94,"category":null,"correct":1,"correct_response":"m","count_reset_feedback":0,"count_trial_sequence":0,"response_keyboard_response":"m","response_time":94,"subject_nr":1,"target":null},
{"acc":100,"accuracy":100,"avg_rt":99,"category":null,"correct":1,"correct_response":"m","count_reset_feedback":0,"count_trial_sequence":1,"response_keyboard_response":"m","response_time":104,"subject_nr":1,"target":null},
{"acc":100,"accuracy":100,"avg_rt":104,"category":null,"correct":1,"correct_response":"m","count_reset_feedback":0,"count_trial_sequence":2,"response_keyboard_response":"m","response_time":113,"subject_nr":1,"target":null},
{"acc":100,"accuracy":100,"avg_rt":101,"category":null,"correct":1,"correct_response":"m","count_reset_feedback":0,"count_trial_sequence":3,"response_keyboard_response":"m","response_time":93,"subject_nr":1,"target":null},
{"acc":100,"accuracy":100,"avg_rt":108,"category":null,"correct":1,"correct_response":"m","count_reset_feedback":0,"count_trial_sequence":4,"response_keyboard_response":"m","response_time":136,"subject_nr":1,"target":null},
{"acc":100,"accuracy":100,"avg_rt":109,"category":null,"correct":1,"correct_response":"m","count_reset_feedback":0,"count_trial_sequence":5,"response_keyboard_response":"m","response_time":113,"subject_nr":1,"target":null},
{"acc":100,"accuracy":100,"avg_rt":107,"category":null,"correct":1,"correct_response":"m","count_reset_feedback":0,"count_trial_sequence":6,"response_keyboard_response":"m","response_time":93,"subject_nr":1,"target":null},
{"acc":100,"accuracy":100,"avg_rt":107,"category":null,"correct":1,"correct_response":"m","count_reset_feedback":0,"count_trial_sequence":7,"response_keyboard_response":"m","response_time":106,"subject_nr":1,"target":null},
{"acc":100,"accuracy":100,"avg_rt":108,"category":null,"correct":1,"correct_response":"m","count_reset_feedback":0,"count_trial_sequence":8,"response_keyboard_response":"m","response_time":119,"subject_nr":1,"target":null},
{"acc":100,"accuracy":100,"avg_rt":106,"category":null,"correct":1,"correct_response":"m","count_reset_feedback":0,"count_trial_sequence":9,"response_keyboard_response":"m","response_time":87,"subject_nr":1,"target":null},
{"acc":100,"accuracy":100,"avg_rt":108,"category":null,"correct":1,"correct_response":"m","count_reset_feedback":0,"count_trial_sequence":10,"response_keyboard_response":"m","response_time":133,"subject_nr":1,"target":null},
{"acc":100,"accuracy":100,"avg_rt":108,"category":null,"correct":1,"correct_response":"m","count_reset_feedback":0,"count_trial_sequence":11,"response_keyboard_response":"m","response_time":108,"subject_nr":1,"target":null},
{"acc":100,"accuracy":100,"avg_rt":110,"category":null,"correct":1,"correct_response":"m","count_reset_feedback":0,"count_trial_sequence":12,"response_keyboard_response":"m","response_time":133,"subject_nr":1,"target":null},
{"acc":100,"accuracy":100,"avg_rt":111,"category":null,"correct":1,"correct_response":"m","count_reset_feedback":0,"count_trial_sequence":13,"response_keyboard_response":"m","response_time":128,"subject_nr":1,"target":null},
{"acc":100,"accuracy":100,"avg_rt":112,"category":null,"correct":1,"correct_response":"m","count_reset_feedback":0,"count_trial_sequence":14,"response_keyboard_response":"m","response_time":118,"subject_nr":1,"target":null},
{"acc":100,"accuracy":100,"avg_rt":112,"category":null,"correct":1,"correct_response":"m","count_reset_feedback":0,"count_trial_sequence":15,"response_keyboard_response":"m","response_time":108,"subject_nr":1,"target":null},
{"acc":100,"accuracy":100,"avg_rt":112,"category":null,"correct":1,"correct_response":"m","count_reset_feedback":0,"count_trial_sequence":16,"response_keyboard_response":"m","response_time":124,"subject_nr":1,"target":null},
{"acc":100,"accuracy":100,"avg_rt":113,"category":null,"correct":1,"correct_response":"m","count_reset_feedback":0,"count_trial_sequence":17,"response_keyboard_response":"m","response_time":120,"subject_nr":1,"target":null},
{"acc":100,"accuracy":100,"avg_rt":114,"category":null,"correct":1,"correct_response":"m","count_reset_feedback":0,"count_trial_sequence":18,"response_keyboard_response":"m","response_time":128,"subject_nr":1,"target":null},
{"acc":100,"accuracy":100,"avg_rt":115,"category":null,"correct":1,"correct_response":"m","count_reset_feedback":0,"count_trial_sequence":19,"response_keyboard_response":"m","response_time":146,"subject_nr":1,"target":null},
{"acc":100,"accuracy":100,"avg_rt":116,"category":null,"correct":1,"correct_response":"m","count_reset_feedback":0,"count_trial_sequence":20,"response_keyboard_response":"m","response_time":123,"subject_nr":1,"target":null},
{"acc":100,"accuracy":100,"avg_rt":116,"category":null,"correct":1,"correct_response":"m","count_reset_feedback":0,"count_trial_sequence":21,"response_keyboard_response":"m","response_time":120,"subject_nr":1,"target":null},
{"acc":100,"accuracy":100,"avg_rt":117,"category":null,"correct":1,"correct_response":"m","count_reset_feedback":0,"count_trial_sequence":22,"response_keyboard_response":"m","response_time":150,"subject_nr":1,"target":null},
{"acc":100,"accuracy":100,"avg_rt":117,"category":null,"correct":1,"correct_response":"m","count_reset_feedback":0,"count_trial_sequence":23,"response_keyboard_response":"m","response_time":116,"subject_nr":1,"target":null},
{"acc":100,"accuracy":100,"avg_rt":117,"category":null,"correct":1,"correct_response":"m","count_reset_feedback":0,"count_trial_sequence":24,"response_keyboard_response":"m","response_time":111,"subject_nr":1,"target":null},
{"acc":100,"accuracy":100,"avg_rt":118,"category":null,"correct":1,"correct_response":"m","count_reset_feedback":0,"count_trial_sequence":25,"response_keyboard_response":"m","response_time":144,"subject_nr":1,"target":null},
{"acc":100,"accuracy":100,"avg_rt":118,"category":null,"correct":1,"correct_response":"m","count_reset_feedback":0,"count_trial_sequence":26,"response_keyboard_response":"m","response_time":127,"subject_nr":1,"target":null},
{"acc":100,"accuracy":100,"avg_rt":118,"category":null,"correct":1,"correct_response":"m","count_reset_feedback":0,"count_trial_sequence":27,"response_keyboard_response":"m","response_time":117,"subject_nr":1,"target":null},
{"acc":100,"accuracy":100,"avg_rt":118,"category":null,"correct":1,"correct_response":"m","count_reset_feedback":0,"count_trial_sequence":28,"response_keyboard_response":"m","response_time":118,"subject_nr":1,"target":null},
{"acc":100,"accuracy":100,"avg_rt":119,"category":null,"correct":1,"correct_response":"m","count_reset_feedback":0,"count_trial_sequence":29,"response_keyboard_response":"m","response_time":136,"subject_nr":1,"target":null},
{"acc":100,"accuracy":100,"avg_rt":119,"category":null,"correct":1,"correct_response":"m","count_reset_feedback":0,"count_trial_sequence":30,"response_keyboard_response":"m","response_time":123,"subject_nr":1,"target":null},
{"acc":100,"accuracy":100,"avg_rt":119,"category":null,"correct":1,"correct_response":"m","count_reset_feedback":0,"count_trial_sequence":31,"response_keyboard_response":"m","response_time":126,"subject_nr":1,"target":null},
{"acc":100,"accuracy":100,"avg_rt":119,"category":null,"correct":1,"correct_response":"m","count_reset_feedback":0,"count_trial_sequence":32,"response_keyboard_response":"m","response_time":125,"subject_nr":1,"target":null},
{"acc":100,"accuracy":100,"avg_rt":120,"category":null,"correct":1,"correct_response":"m","count_reset_feedback":0,"count_trial_sequence":33,"response_keyboard_response":"m","response_time":130,"subject_nr":1,"target":null},
{"acc":100,"accuracy":100,"avg_rt":120,"category":null,"correct":1,"correct_response":"m","count_reset_feedback":0,"count_trial_sequence":34,"response_keyboard_response":"m","response_time":118,"subject_nr":1,"target":null},
{"acc":100,"accuracy":100,"avg_rt":120,"category":null,"correct":1,"correct_response":"m","count_reset_feedback":0,"count_trial_sequence":35,"response_keyboard_response":"m","response_time":144,"subject_nr":1,"target":null},
{"acc":100,"accuracy":100,"avg_rt":121,"category":null,"correct":1,"correct_response":"m","count_reset_feedback":0,"count_trial_sequence":36,"response_keyboard_response":"m","response_time":144,"subject_nr":1,"target":null},
{"acc":100,"accuracy":100,"avg_rt":121,"category":null,"correct":1,"correct_response":"m","count_reset_feedback":0,"count_trial_sequence":37,"response_keyboard_response":"m","response_time":138,"subject_nr":1,"target":null},
{"acc":100,"accuracy":100,"avg_rt":122,"category":null,"correct":1,"correct_response":"m","count_reset_feedback":0,"count_trial_sequence":38,"response_keyboard_response":"m","response_time":149,"subject_nr":1,"target":null},
{"acc":100,"accuracy":100,"avg_rt":123,"category":null,"correct":1,"correct_response":"m","count_reset_feedback":0,"count_trial_sequence":39,"response_keyboard_response":"m","response_time":140,"subject_nr":1,"target":null},
{"acc":100,"accuracy":100,"avg_rt":123,"category":null,"correct":1,"correct_response":"m","count_reset_feedback":0,"count_trial_sequence":40,"response_keyboard_response":"m","response_time":152,"subject_nr":1,"target":null},
{"acc":100,"accuracy":100,"avg_rt":123,"category":null,"correct":1,"correct_response":"m","count_reset_feedback":0,"count_trial_sequence":41,"response_keyboard_response":"m","response_time":123,"subject_nr":1,"target":null},
{"acc":100,"accuracy":100,"avg_rt":124,"category":null,"correct":1,"correct_response":"m","count_reset_feedback":0,"count_trial_sequence":42,"response_keyboard_response":"m","response_time":143,"subject_nr":1,"target":null},
{"acc":100,"accuracy":100,"avg_rt":124,"category":null,"correct":1,"correct_response":"m","count_reset_feedback":0,"count_trial_sequence":43,"response_keyboard_response":"m","response_time":129,"subject_nr":1,"target":null},
{"acc":100,"accuracy":100,"avg_rt":124,"category":null,"correct":1,"correct_response":"m","count_reset_feedback":0,"count_trial_sequence":44,"response_keyboard_response":"m","response_time":116,"subject_nr":1,"target":null},
{"acc":100,"accuracy":100,"avg_rt":124,"category":null,"correct":1,"correct_response":"m","count_reset_feedback":0,"count_trial_sequence":45,"response_keyboard_response":"m","response_time":131,"subject_nr":1,"target":null},
{"acc":100,"accuracy":100,"avg_rt":124,"category":null,"correct":1,"correct_response":"m","count_reset_feedback":0,"count_trial_sequence":46,"response_keyboard_response":"m","response_time":149,"subject_nr":1,"target":null},
{"acc":100,"accuracy":100,"avg_rt":125,"category":null,"correct":1,"correct_response":"m","count_reset_feedback":0,"count_trial_sequence":47,"response_keyboard_response":"m","response_time":145,"subject_nr":1,"target":null},
{"acc":100,"accuracy":100,"avg_rt":125,"category":null,"correct":1,"correct_response":"m","count_reset_feedback":0,"count_trial_sequence":48,"response_keyboard_response":"m","response_time":129,"subject_nr":1,"target":null},
{"acc":100,"accuracy":100,"avg_rt":126,"category":null,"correct":1,"correct_response":"m","count_reset_feedback":0,"count_trial_sequence":49,"response_keyboard_response":"m","response_time":191,"subject_nr":1,"target":null},

[{"acc":100,"accuracy":100,"avg_rt":435,"category":null,"correct":1,"correct_response":"m","count_reset_feedback":0,"count_trial_sequence":0,"response_keyboard_response":"m","response_time":435,"subject_nr":0,"target":null},
{"acc":100,"accuracy":100,"avg_rt":263,"category":null,"correct":1,"correct_response":"m","count_reset_feedback":0,"count_trial_sequence":1,"response_keyboard_response":"m","response_time":90,"subject_nr":0,"target":null},
{"acc":100,"accuracy":100,"avg_rt":220,"category":null,"correct":1,"correct_response":"m","count_reset_feedback":0,"count_trial_sequence":2,"response_keyboard_response":"m","response_time":135,"subject_nr":0,"target":null},
{"acc":100,"accuracy":100,"avg_rt":195,"category":null,"correct":1,"correct_response":"m","count_reset_feedback":0,"count_trial_sequence":3,"response_keyboard_response":"m","response_time":120,"subject_nr":0,"target":null},
{"acc":100,"accuracy":100,"avg_rt":176,"category":null,"correct":1,"correct_response":"m","count_reset_feedback":0,"count_trial_sequence":4,"response_keyboard_response":"m","response_time":102,"subject_nr":0,"target":null},
{"acc":100,"accuracy":100,"avg_rt":163,"category":null,"correct":1,"correct_response":"m","count_reset_feedback":0,"count_trial_sequence":5,"response_keyboard_response":"m","response_time":96,"subject_nr":0,"target":null},
{"acc":100,"accuracy":100,"avg_rt":149,"category":null,"correct":1,"correct_response":"m","count_reset_feedback":0,"count_trial_sequence":6,"response_keyboard_response":"m","response_time":68,"subject_nr":0,"target":null},
{"acc":100,"accuracy":100,"avg_rt":143,"category":null,"correct":1,"correct_response":"m","count_reset_feedback":0,"count_trial_sequence":7,"response_keyboard_response":"m","response_time":100,"subject_nr":0,"target":null},
{"acc":100,"accuracy":100,"avg_rt":139,"category":null,"correct":1,"correct_response":"m","count_reset_feedback":0,"count_trial_sequence":8,"response_keyboard_response":"m","response_time":103,"subject_nr":0,"target":null},
{"acc":100,"accuracy":100,"avg_rt":137,"category":null,"correct":1,"correct_response":"m","count_reset_feedback":0,"count_trial_sequence":9,"response_keyboard_response":"m","response_time":120,"subject_nr":0,"target":null},
{"acc":100,"accuracy":100,"avg_rt":140,"category":null,"correct":1,"correct_response":"m","count_reset_feedback":0,"count_trial_sequence":10,"response_keyboard_response":"m","response_time":169,"subject_nr":0,"target":null},
{"acc":100,"accuracy":100,"avg_rt":139,"category":null,"correct":1,"correct_response":"m","count_reset_feedback":0,"count_trial_sequence":11,"response_keyboard_response":"m","response_time":125,"subject_nr":0,"target":null},
{"acc":100,"accuracy":100,"avg_rt":138,"category":null,"correct":1,"correct_response":"m","count_reset_feedback":0,"count_trial_sequence":12,"response_keyboard_response":"m","response_time":136,"subject_nr":0,"target":null},
{"acc":100,"accuracy":100,"avg_rt":138,"category":null,"correct":1,"correct_response":"m","count_reset_feedback":0,"count_trial_sequence":13,"response_keyboard_response":"m","response_time":127,"subject_nr":0,"target":null},
{"acc":100,"accuracy":100,"avg_rt":138,"category":null,"correct":1,"correct_response":"m","count_reset_feedback":0,"count_trial_sequence":14,"response_keyboard_response":"m","response_time":137,"subject_nr":0,"target":null},
{"acc":100,"accuracy":100,"avg_rt":136,"category":null,"correct":1,"correct_response":"m","count_reset_feedback":0,"count_trial_sequence":15,"response_keyboard_response":"m","response_time":119,"subject_nr":0,"target":null},
{"acc":100,"accuracy":100,"avg_rt":136,"category":null,"correct":1,"correct_response":"m","count_reset_feedback":0,"count_trial_sequence":16,"response_keyboard_response":"m","response_time":127,"subject_nr":0,"target":null},
{"acc":100,"accuracy":100,"avg_rt":136,"category":null,"correct":1,"correct_response":"m","count_reset_feedback":0,"count_trial_sequence":17,"response_keyboard_response":"m","response_time":143,"subject_nr":0,"target":null},
{"acc":100,"accuracy":100,"avg_rt":136,"category":null,"correct":1,"correct_response":"m","count_reset_feedback":0,"count_trial_sequence":18,"response_keyboard_response":"m","response_time":128,"subject_nr":0,"target":null},
{"acc":100,"accuracy":100,"avg_rt":135,"category":null,"correct":1,"correct_response":"m","count_reset_feedback":0,"count_trial_sequence":19,"response_keyboard_response":"m","response_time":123,"subject_nr":0,"target":null},
{"acc":100,"accuracy":100,"avg_rt":136,"category":null,"correct":1,"correct_response":"m","count_reset_feedback":0,"count_trial_sequence":20,"response_keyboard_response":"m","response_time":144,"subject_nr":0,"target":null},
{"acc":100,"accuracy":100,"avg_rt":135,"category":null,"correct":1,"correct_response":"m","count_reset_feedback":0,"count_trial_sequence":21,"response_keyboard_response":"m","response_time":123,"subject_nr":0,"target":null},
{"acc":100,"accuracy":100,"avg_rt":135,"category":null,"correct":1,"correct_response":"m","count_reset_feedback":0,"count_trial_sequence":22,"response_keyboard_response":"m","response_time":134,"subject_nr":0,"target":null},
{"acc":100,"accuracy":100,"avg_rt":135,"category":null,"correct":1,"correct_response":"m","count_reset_feedback":0,"count_trial_sequence":23,"response_keyboard_response":"m","response_time":127,"subject_nr":0,"target":null},
{"acc":100,"accuracy":100,"avg_rt":135,"category":null,"correct":1,"correct_response":"m","count_reset_feedback":0,"count_trial_sequence":24,"response_keyboard_response":"m","response_time":136,"subject_nr":0,"target":null},
{"acc":100,"accuracy":100,"avg_rt":135,"category":null,"correct":1,"correct_response":"m","count_reset_feedback":0,"count_trial_sequence":25,"response_keyboard_response":"m","response_time":130,"subject_nr":0,"target":null},
{"acc":100,"accuracy":100,"avg_rt":135,"category":null,"correct":1,"correct_response":"m","count_reset_feedback":0,"count_trial_sequence":26,"response_keyboard_response":"m","response_time":135,"subject_nr":0,"target":null},
{"acc":100,"accuracy":100,"avg_rt":135,"category":null,"correct":1,"correct_response":"m","count_reset_feedback":0,"count_trial_sequence":27,"response_keyboard_response":"m","response_time":135,"subject_nr":0,"target":null},
{"acc":100,"accuracy":100,"avg_rt":135,"category":null,"correct":1,"correct_response":"m","count_reset_feedback":0,"count_trial_sequence":28,"response_keyboard_response":"m","response_time":153,"subject_nr":0,"target":null},
{"acc":100,"accuracy":100,"avg_rt":135,"category":null,"correct":1,"correct_response":"m","count_reset_feedback":0,"count_trial_sequence":29,"response_keyboard_response":"m","response_time":141,"subject_nr":0,"target":null},
{"acc":100,"accuracy":100,"avg_rt":135,"category":null,"correct":1,"correct_response":"m","count_reset_feedback":0,"count_trial_sequence":30,"response_keyboard_response":"m","response_time":128,"subject_nr":0,"target":null},
{"acc":100,"accuracy":100,"avg_rt":135,"category":null,"correct":1,"correct_response":"m","count_reset_feedback":0,"count_trial_sequence":31,"response_keyboard_response":"m","response_time":143,"subject_nr":0,"target":null},
{"acc":100,"accuracy":100,"avg_rt":136,"category":null,"correct":1,"correct_response":"m","count_reset_feedback":0,"count_trial_sequence":32,"response_keyboard_response":"m","response_time":142,"subject_nr":0,"target":null},
{"acc":100,"accuracy":100,"avg_rt":136,"category":null,"correct":1,"correct_response":"m","count_reset_feedback":0,"count_trial_sequence":33,"response_keyboard_response":"m","response_time":138,"subject_nr":0,"target":null},
{"acc":100,"accuracy":100,"avg_rt":136,"category":null,"correct":1,"correct_response":"m","count_reset_feedback":0,"count_trial_sequence":34,"response_keyboard_response":"m","response_time":155,"subject_nr":0,"target":null},
{"acc":100,"accuracy":100,"avg_rt":136,"category":null,"correct":1,"correct_response":"m","count_reset_feedback":0,"count_trial_sequence":35,"response_keyboard_response":"m","response_time":141,"subject_nr":0,"target":null},
{"acc":100,"accuracy":100,"avg_rt":137,"category":null,"correct":1,"correct_response":"m","count_reset_feedback":0,"count_trial_sequence":36,"response_keyboard_response":"m","response_time":149,"subject_nr":0,"target":null},
{"acc":100,"accuracy":100,"avg_rt":137,"category":null,"correct":1,"correct_response":"m","count_reset_feedback":0,"count_trial_sequence":37,"response_keyboard_response":"m","response_time":135,"subject_nr":0,"target":null},
{"acc":100,"accuracy":100,"avg_rt":137,"category":null,"correct":1,"correct_response":"m","count_reset_feedback":0,"count_trial_sequence":38,"response_keyboard_response":"m","response_time":144,"subject_nr":0,"target":null},
{"acc":100,"accuracy":100,"avg_rt":137,"category":null,"correct":1,"correct_response":"m","count_reset_feedback":0,"count_trial_sequence":39,"response_keyboard_response":"m","response_time":143,"subject_nr":0,"target":null},
{"acc":100,"accuracy":100,"avg_rt":137,"category":null,"correct":1,"correct_response":"m","count_reset_feedback":0,"count_trial_sequence":40,"response_keyboard_response":"m","response_time":124,"subject_nr":0,"target":null},
{"acc":100,"accuracy":100,"avg_rt":137,"category":null,"correct":1,"correct_response":"m","count_reset_feedback":0,"count_trial_sequence":41,"response_keyboard_response":"m","response_time":158,"subject_nr":0,"target":null},
{"acc":100,"accuracy":100,"avg_rt":138,"category":null,"correct":1,"correct_response":"m","count_reset_feedback":0,"count_trial_sequence":42,"response_keyboard_response":"m","response_time":153,"subject_nr":0,"target":null},
{"acc":100,"accuracy":100,"avg_rt":137,"category":null,"correct":1,"correct_response":"m","count_reset_feedback":0,"count_trial_sequence":43,"response_keyboard_response":"m","response_time":110,"subject_nr":0,"target":null},
{"acc":100,"accuracy":100,"avg_rt":137,"category":null,"correct":1,"correct_response":"m","count_reset_feedback":0,"count_trial_sequence":44,"response_keyboard_response":"m","response_time":160,"subject_nr":0,"target":null},
{"acc":100,"accuracy":100,"avg_rt":137,"category":null,"correct":1,"correct_response":"m","count_reset_feedback":0,"count_trial_sequence":45,"response_keyboard_response":"m","response_time":135,"subject_nr":0,"target":null},
{"acc":100,"accuracy":100,"avg_rt":137,"category":null,"correct":1,"correct_response":"m","count_reset_feedback":0,"count_trial_sequence":46,"response_keyboard_response":"m","response_time":134,"subject_nr":0,"target":null},
{"acc":100,"accuracy":100,"avg_rt":137,"category":null,"correct":1,"correct_response":"m","count_reset_feedback":0,"count_trial_sequence":47,"response_keyboard_response":"m","response_time":131,"subject_nr":0,"target":null},
{"acc":100,"accuracy":100,"avg_rt":137,"category":null,"correct":1,"correct_response":"m","count_reset_feedback":0,"count_trial_sequence":48,"response_keyboard_response":"m","response_time":127,"subject_nr":0,"target":null},
{"acc":100,"accuracy":100,"avg_rt":138,"category":null,"correct":1,"correct_response":"m","count_reset_feedback":0,"count_trial_sequence":49,"response_keyboard_response":"m","response_time":176,"subject_nr":0,"target":null},

[{"acc":100,"accuracy":100,"avg_rt":89,"category":null,"correct":1,"correct_response":"m","count_reset_feedback":0,"count_trial_sequence":0,"response_keyboard_response":"m","response_time":89,"subject_nr":1,"target":null},
{"acc":100,"accuracy":100,"avg_rt":100,"category":null,"correct":1,"correct_response":"m","count_reset_feedback":0,"count_trial_sequence":1,"response_keyboard_response":"m","response_time":110,"subject_nr":1,"target":null},
{"acc":100,"accuracy":100,"avg_rt":95,"category":null,"correct":1,"correct_response":"m","count_reset_feedback":0,"count_trial_sequence":2,"response_keyboard_response":"m","response_time":87,"subject_nr":1,"target":null},
{"acc":100,"accuracy":100,"avg_rt":106,"category":null,"correct":1,"correct_response":"m","count_reset_feedback":0,"count_trial_sequence":3,"response_keyboard_response":"m","response_time":136,"subject_nr":1,"target":null},
{"acc":100,"accuracy":100,"avg_rt":109,"category":null,"correct":1,"correct_response":"m","count_reset_feedback":0,"count_trial_sequence":4,"response_keyboard_response":"m","response_time":125,"subject_nr":1,"target":null},
{"acc":100,"accuracy":100,"avg_rt":113,"category":null,"correct":1,"correct_response":"m","count_reset_feedback":0,"count_trial_sequence":5,"response_keyboard_response":"m","response_time":132,"subject_nr":1,"target":null},
{"acc":100,"accuracy":100,"avg_rt":115,"category":null,"correct":1,"correct_response":"m","count_reset_feedback":0,"count_trial_sequence":6,"response_keyboard_response":"m","response_time":129,"subject_nr":1,"target":null},
{"acc":100,"accuracy":100,"avg_rt":115,"category":null,"correct":1,"correct_response":"m","count_reset_feedback":0,"count_trial_sequence":7,"response_keyboard_response":"m","response_time":108,"subject_nr":1,"target":null},
{"acc":100,"accuracy":100,"avg_rt":109,"category":null,"correct":1,"correct_response":"m","count_reset_feedback":0,"count_trial_sequence":8,"response_keyboard_response":"m","response_time":67,"subject_nr":1,"target":null},
{"acc":100,"accuracy":100,"avg_rt":112,"category":null,"correct":1,"correct_response":"m","count_reset_feedback":0,"count_trial_sequence":9,"response_keyboard_response":"m","response_time":132,"subject_nr":1,"target":null},
{"acc":100,"accuracy":100,"avg_rt":112,"category":null,"correct":1,"correct_response":"m","count_reset_feedback":0,"count_trial_sequence":10,"response_keyboard_response":"m","response_time":115,"subject_nr":1,"target":null},
{"acc":100,"accuracy":100,"avg_rt":113,"category":null,"correct":1,"correct_response":"m","count_reset_feedback":0,"count_trial_sequence":11,"response_keyboard_response":"m","response_time":125,"subject_nr":1,"target":null},
{"acc":100,"accuracy":100,"avg_rt":116,"category":null,"correct":1,"correct_response":"m","count_reset_feedback":0,"count_trial_sequence":12,"response_keyboard_response":"m","response_time":153,"subject_nr":1,"target":null},
{"acc":100,"accuracy":100,"avg_rt":117,"category":null,"correct":1,"correct_response":"m","count_reset_feedback":0,"count_trial_sequence":13,"response_keyboard_response":"m","response_time":130,"subject_nr":1,"target":null},
{"acc":100,"accuracy":100,"avg_rt":118,"category":null,"correct":1,"correct_response":"m","count_reset_feedback":0,"count_trial_sequence":14,"response_keyboard_response":"m","response_time":131,"subject_nr":1,"target":null},
{"acc":100,"accuracy":100,"avg_rt":118,"category":null,"correct":1,"correct_response":"m","count_reset_feedback":0,"count_trial_sequence":15,"response_keyboard_response":"m","response_time":114,"subject_nr":1,"target":null},
{"acc":100,"accuracy":100,"avg_rt":117,"category":null,"correct":1,"correct_response":"m","count_reset_feedback":0,"count_trial_sequence":16,"response_keyboard_response":"m","response_time":105,"subject_nr":1,"target":null},
{"acc":100,"accuracy":100,"avg_rt":117,"category":null,"correct":1,"correct_response":"m","count_reset_feedback":0,"count_trial_sequence":17,"response_keyboard_response":"m","response_time":125,"subject_nr":1,"target":null},
{"acc":100,"accuracy":100,"avg_rt":118,"category":null,"correct":1,"correct_response":"m","count_reset_feedback":0,"count_trial_sequence":18,"response_keyboard_response":"m","response_time":131,"subject_nr":1,"target":null},
{"acc":100,"accuracy":100,"avg_rt":119,"category":null,"correct":1,"correct_response":"m","count_reset_feedback":0,"count_trial_sequence":19,"response_keyboard_response":"m","response_time":136,"subject_nr":1,"target":null},
{"acc":100,"accuracy":100,"avg_rt":119,"category":null,"correct":1,"correct_response":"m","count_reset_feedback":0,"count_trial_sequence":20,"response_keyboard_response":"m","response_time":110,"subject_nr":1,"target":null},
{"acc":100,"accuracy":100,"avg_rt":120,"category":null,"correct":1,"correct_response":"m","count_reset_feedback":0,"count_trial_sequence":21,"response_keyboard_response":"m","response_time":150,"subject_nr":1,"target":null},
{"acc":100,"accuracy":100,"avg_rt":122,"category":null,"correct":1,"correct_response":"m","count_reset_feedback":0,"count_trial_sequence":22,"response_keyboard_response":"m","response_time":159,"subject_nr":1,"target":null},
{"acc":100,"accuracy":100,"avg_rt":122,"category":null,"correct":1,"correct_response":"m","count_reset_feedback":0,"count_trial_sequence":23,"response_keyboard_response":"m","response_time":128,"subject_nr":1,"target":null},
{"acc":100,"accuracy":100,"avg_rt":123,"category":null,"correct":1,"correct_response":"m","count_reset_feedback":0,"count_trial_sequence":24,"response_keyboard_response":"m","response_time":138,"subject_nr":1,"target":null},
{"acc":100,"accuracy":100,"avg_rt":124,"category":null,"correct":1,"correct_response":"m","count_reset_feedback":0,"count_trial_sequence":25,"response_keyboard_response":"m","response_time":146,"subject_nr":1,"target":null},
{"acc":100,"accuracy":100,"avg_rt":124,"category":null,"correct":1,"correct_response":"m","count_reset_feedback":0,"count_trial_sequence":26,"response_keyboard_response":"m","response_time":132,"subject_nr":1,"target":null},
{"acc":100,"accuracy":100,"avg_rt":124,"category":null,"correct":1,"correct_response":"m","count_reset_feedback":0,"count_trial_sequence":27,"response_keyboard_response":"m","response_time":127,"subject_nr":1,"target":null},
{"acc":100,"accuracy":100,"avg_rt":125,"category":null,"correct":1,"correct_response":"m","count_reset_feedback":0,"count_trial_sequence":28,"response_keyboard_response":"m","response_time":142,"subject_nr":1,"target":null},
{"acc":100,"accuracy":100,"avg_rt":125,"category":null,"correct":1,"correct_response":"m","count_reset_feedback":0,"count_trial_sequence":29,"response_keyboard_response":"m","response_time":127,"subject_nr":1,"target":null},
{"acc":100,"accuracy":100,"avg_rt":125,"category":null,"correct":1,"correct_response":"m","count_reset_feedback":0,"count_trial_sequence":30,"response_keyboard_response":"m","response_time":122,"subject_nr":1,"target":null},
{"acc":100,"accuracy":100,"avg_rt":125,"category":null,"correct":1,"correct_response":"m","count_reset_feedback":0,"count_trial_sequence":31,"response_keyboard_response":"m","response_time":125,"subject_nr":1,"target":null},
{"acc":100,"accuracy":100,"avg_rt":125,"category":null,"correct":1,"correct_response":"m","count_reset_feedback":0,"count_trial_sequence":32,"response_keyboard_response":"m","response_time":146,"subject_nr":1,"target":null},
{"acc":100,"accuracy":100,"avg_rt":126,"category":null,"correct":1,"correct_response":"m","count_reset_feedback":0,"count_trial_sequence":33,"response_keyboard_response":"m","response_time":136,"subject_nr":1,"target":null},
{"acc":100,"accuracy":100,"avg_rt":126,"category":null,"correct":1,"correct_response":"m","count_reset_feedback":0,"count_trial_sequence":34,"response_keyboard_response":"m","response_time":147,"subject_nr":1,"target":null},
{"acc":100,"accuracy":100,"avg_rt":126,"category":null,"correct":1,"correct_response":"m","count_reset_feedback":0,"count_trial_sequence":35,"response_keyboard_response":"m","response_time":124,"subject_nr":1,"target":null},
{"acc":100,"accuracy":100,"avg_rt":126,"category":null,"correct":1,"correct_response":"m","count_reset_feedback":0,"count_trial_sequence":36,"response_keyboard_response":"m","response_time":110,"subject_nr":1,"target":null},
{"acc":100,"accuracy":100,"avg_rt":126,"category":null,"correct":1,"correct_response":"m","count_reset_feedback":0,"count_trial_sequence":37,"response_keyboard_response":"m","response_time":120,"subject_nr":1,"target":null},
{"acc":100,"accuracy":100,"avg_rt":126,"category":null,"correct":1,"correct_response":"m","count_reset_feedback":0,"count_trial_sequence":38,"response_keyboard_response":"m","response_time":155,"subject_nr":1,"target":null},
{"acc":100,"accuracy":100,"avg_rt":127,"category":null,"correct":1,"correct_response":"m","count_reset_feedback":0,"count_trial_sequence":39,"response_keyboard_response":"m","response_time":139,"subject_nr":1,"target":null},
{"acc":100,"accuracy":100,"avg_rt":127,"category":null,"correct":1,"correct_response":"m","count_reset_feedback":0,"count_trial_sequence":40,"response_keyboard_response":"m","response_time":152,"subject_nr":1,"target":null},
{"acc":100,"accuracy":100,"avg_rt":127,"category":null,"correct":1,"correct_response":"m","count_reset_feedback":0,"count_trial_sequence":41,"response_keyboard_response":"m","response_time":136,"subject_nr":1,"target":null},
{"acc":100,"accuracy":100,"avg_rt":127,"category":null,"correct":1,"correct_response":"m","count_reset_feedback":0,"count_trial_sequence":42,"response_keyboard_response":"m","response_time":131,"subject_nr":1,"target":null},
{"acc":100,"accuracy":100,"avg_rt":128,"category":null,"correct":1,"correct_response":"m","count_reset_feedback":0,"count_trial_sequence":43,"response_keyboard_response":"m","response_time":133,"subject_nr":1,"target":null},
{"acc":100,"accuracy":100,"avg_rt":128,"category":null,"correct":1,"correct_response":"m","count_reset_feedback":0,"count_trial_sequence":44,"response_keyboard_response":"m","response_time":135,"subject_nr":1,"target":null},
{"acc":100,"accuracy":100,"avg_rt":128,"category":null,"correct":1,"correct_response":"m","count_reset_feedback":0,"count_trial_sequence":45,"response_keyboard_response":"m","response_time":145,"subject_nr":1,"target":null},
{"acc":100,"accuracy":100,"avg_rt":128,"category":null,"correct":1,"correct_response":"m","count_reset_feedback":0,"count_trial_sequence":46,"response_keyboard_response":"m","response_time":140,"subject_nr":1,"target":null},
{"acc":100,"accuracy":100,"avg_rt":129,"category":null,"correct":1,"correct_response":"m","count_reset_feedback":0,"count_trial_sequence":47,"response_keyboard_response":"m","response_time":158,"subject_nr":1,"target":null},
{"acc":100,"accuracy":100,"avg_rt":129,"category":null,"correct":1,"correct_response":"m","count_reset_feedback":0,"count_trial_sequence":48,"response_keyboard_response":"m","response_time":150,"subject_nr":1,"target":null},
{"acc":100,"accuracy":100,"avg_rt":130,"category":null,"correct":1,"correct_response":"m","count_reset_feedback":0,"count_trial_sequence":49,"response_keyboard_response":"m","response_time":139,"subject_nr":1,"target":null},

[{"acc":100,"accuracy":100,"avg_rt":79,"category":null,"correct":1,"correct_response":"m","count_reset_feedback":0,"count_trial_sequence":0,"response_keyboard_response":"m","response_time":79,"subject_nr":1,"target":null},
{"acc":100,"accuracy":100,"avg_rt":112,"category":null,"correct":1,"correct_response":"m","count_reset_feedback":0,"count_trial_sequence":1,"response_keyboard_response":"m","response_time":144,"subject_nr":1,"target":null},
{"acc":100,"accuracy":100,"avg_rt":120,"category":null,"correct":1,"correct_response":"m","count_reset_feedback":0,"count_trial_sequence":2,"response_keyboard_response":"m","response_time":137,"subject_nr":1,"target":null},
{"acc":100,"accuracy":100,"avg_rt":115,"category":null,"correct":1,"correct_response":"m","count_reset_feedback":0,"count_trial_sequence":3,"response_keyboard_response":"m","response_time":101,"subject_nr":1,"target":null},
{"acc":100,"accuracy":100,"avg_rt":111,"category":null,"correct":1,"correct_response":"m","count_reset_feedback":0,"count_trial_sequence":4,"response_keyboard_response":"m","response_time":92,"subject_nr":1,"target":null},
{"acc":100,"accuracy":100,"avg_rt":111,"category":null,"correct":1,"correct_response":"m","count_reset_feedback":0,"count_trial_sequence":5,"response_keyboard_response":"m","response_time":111,"subject_nr":1,"target":null},
{"acc":100,"accuracy":100,"avg_rt":114,"category":null,"correct":1,"correct_response":"m","count_reset_feedback":0,"count_trial_sequence":6,"response_keyboard_response":"m","response_time":137,"subject_nr":1,"target":null},
{"acc":100,"accuracy":100,"avg_rt":115,"category":null,"correct":1,"correct_response":"m","count_reset_feedback":0,"count_trial_sequence":7,"response_keyboard_response":"m","response_time":115,"subject_nr":1,"target":null},
{"acc":100,"accuracy":100,"avg_rt":114,"category":null,"correct":1,"correct_response":"m","count_reset_feedback":0,"count_trial_sequence":8,"response_keyboard_response":"m","response_time":114,"subject_nr":1,"target":null},
{"acc":100,"accuracy":100,"avg_rt":120,"category":null,"correct":1,"correct_response":"m","count_reset_feedback":0,"count_trial_sequence":9,"response_keyboard_response":"m","response_time":169,"subject_nr":1,"target":null},
{"acc":100,"accuracy":100,"avg_rt":122,"category":null,"correct":1,"correct_response":"m","count_reset_feedback":0,"count_trial_sequence":10,"response_keyboard_response":"m","response_time":146,"subject_nr":1,"target":null},
{"acc":100,"accuracy":100,"avg_rt":123,"category":null,"correct":1,"correct_response":"m","count_reset_feedback":0,"count_trial_sequence":11,"response_keyboard_response":"m","response_time":131,"subject_nr":1,"target":null},
{"acc":100,"accuracy":100,"avg_rt":124,"category":null,"correct":1,"correct_response":"m","count_reset_feedback":0,"count_trial_sequence":12,"response_keyboard_response":"m","response_time":131,"subject_nr":1,"target":null},
{"acc":100,"accuracy":100,"avg_rt":124,"category":null,"correct":1,"correct_response":"m","count_reset_feedback":0,"count_trial_sequence":13,"response_keyboard_response":"m","response_time":127,"subject_nr":1,"target":null},
{"acc":100,"accuracy":100,"avg_rt":124,"category":null,"correct":1,"correct_response":"m","count_reset_feedback":0,"count_trial_sequence":14,"response_keyboard_response":"m","response_time":125,"subject_nr":1,"target":null},
{"acc":100,"accuracy":100,"avg_rt":124,"category":null,"correct":1,"correct_response":"m","count_reset_feedback":0,"count_trial_sequence":15,"response_keyboard_response":"m","response_time":130,"subject_nr":1,"target":null},
{"acc":100,"accuracy":100,"avg_rt":124,"category":null,"correct":1,"correct_response":"m","count_reset_feedback":0,"count_trial_sequence":16,"response_keyboard_response":"m","response_time":127,"subject_nr":1,"target":null},
{"acc":100,"accuracy":100,"avg_rt":125,"category":null,"correct":1,"correct_response":"m","count_reset_feedback":0,"count_trial_sequence":17,"response_keyboard_response":"m","response_time":138,"subject_nr":1,"target":null},
{"acc":100,"accuracy":100,"avg_rt":125,"category":null,"correct":1,"correct_response":"m","count_reset_feedback":0,"count_trial_sequence":18,"response_keyboard_response":"m","response_time":121,"subject_nr":1,"target":null},
{"acc":100,"accuracy":100,"avg_rt":125,"category":null,"correct":1,"correct_response":"m","count_reset_feedback":0,"count_trial_sequence":19,"response_keyboard_response":"m","response_time":133,"subject_nr":1,"target":null},
{"acc":100,"accuracy":100,"avg_rt":126,"category":null,"correct":1,"correct_response":"m","count_reset_feedback":0,"count_trial_sequence":20,"response_keyboard_response":"m","response_time":135,"subject_nr":1,"target":null},
{"acc":100,"accuracy":100,"avg_rt":126,"category":null,"correct":1,"correct_response":"m","count_reset_feedback":0,"count_trial_sequence":21,"response_keyboard_response":"m","response_time":128,"subject_nr":1,"target":null},
{"acc":100,"accuracy":100,"avg_rt":126,"category":null,"correct":1,"correct_response":"m","count_reset_feedback":0,"count_trial_sequence":22,"response_keyboard_response":"m","response_time":130,"subject_nr":1,"target":null},
{"acc":100,"accuracy":100,"avg_rt":126,"category":null,"correct":1,"correct_response":"m","count_reset_feedback":0,"count_trial_sequence":23,"response_keyboard_response":"m","response_time":127,"subject_nr":1,"target":null},
{"acc":100,"accuracy":100,"avg_rt":126,"category":null,"correct":1,"correct_response":"m","count_reset_feedback":0,"count_trial_sequence":24,"response_keyboard_response":"m","response_time":128,"subject_nr":1,"target":null},
{"acc":100,"accuracy":100,"avg_rt":128,"category":null,"correct":1,"correct_response":"m","count_reset_feedback":0,"count_trial_sequence":25,"response_keyboard_response":"m","response_time":161,"subject_nr":1,"target":null},
{"acc":100,"accuracy":100,"avg_rt":128,"category":null,"correct":1,"correct_response":"m","count_reset_feedback":0,"count_trial_sequence":26,"response_keyboard_response":"m","response_time":129,"subject_nr":1,"target":null},
{"acc":100,"accuracy":100,"avg_rt":128,"category":null,"correct":1,"correct_response":"m","count_reset_feedback":0,"count_trial_sequence":27,"response_keyboard_response":"m","response_time":130,"subject_nr":1,"target":null},
{"acc":100,"accuracy":100,"avg_rt":128,"category":null,"correct":1,"correct_response":"m","count_reset_feedback":0,"count_trial_sequence":28,"response_keyboard_response":"m","response_time":144,"subject_nr":1,"target":null},
{"acc":100,"accuracy":100,"avg_rt":128,"category":null,"correct":1,"correct_response":"m","count_reset_feedback":0,"count_trial_sequence":29,"response_keyboard_response":"m","response_time":133,"subject_nr":1,"target":null},
{"acc":100,"accuracy":100,"avg_rt":129,"category":null,"correct":1,"correct_response":"m","count_reset_feedback":0,"count_trial_sequence":30,"response_keyboard_response":"m","response_time":141,"subject_nr":1,"target":null},
{"acc":100,"accuracy":100,"avg_rt":129,"category":null,"correct":1,"correct_response":"m","count_reset_feedback":0,"count_trial_sequence":31,"response_keyboard_response":"m","response_time":134,"subject_nr":1,"target":null},
{"acc":100,"accuracy":100,"avg_rt":129,"category":null,"correct":1,"correct_response":"m","count_reset_feedback":0,"count_trial_sequence":32,"response_keyboard_response":"m","response_time":140,"subject_nr":1,"target":null},
{"acc":100,"accuracy":100,"avg_rt":129,"category":null,"correct":1,"correct_response":"m","count_reset_feedback":0,"count_trial_sequence":33,"response_keyboard_response":"m","response_time":130,"subject_nr":1,"target":null},
{"acc":100,"accuracy":100,"avg_rt":130,"category":null,"correct":1,"correct_response":"m","count_reset_feedback":0,"count_trial_sequence":34,"response_keyboard_response":"m","response_time":138,"subject_nr":1,"target":null},
{"acc":100,"accuracy":100,"avg_rt":130,"category":null,"correct":1,"correct_response":"m","count_reset_feedback":0,"count_trial_sequence":35,"response_keyboard_response":"m","response_time":138,"subject_nr":1,"target":null},
{"acc":100,"accuracy":100,"avg_rt":131,"category":null,"correct":1,"correct_response":"m","count_reset_feedback":0,"count_trial_sequence":36,"response_keyboard_response":"m","response_time":156,"subject_nr":1,"target":null},
{"acc":100,"accuracy":100,"avg_rt":131,"category":null,"correct":1,"correct_response":"m","count_reset_feedback":0,"count_trial_sequence":37,"response_keyboard_response":"m","response_time":142,"subject_nr":1,"target":null},
{"acc":100,"accuracy":100,"avg_rt":131,"category":null,"correct":1,"correct_response":"m","count_reset_feedback":0,"count_trial_sequence":38,"response_keyboard_response":"m","response_time":136,"subject_nr":1,"target":null},
{"acc":100,"accuracy":100,"avg_rt":131,"category":null,"correct":1,"correct_response":"m","count_reset_feedback":0,"count_trial_sequence":39,"response_keyboard_response":"m","response_time":134,"subject_nr":1,"target":null},
{"acc":100,"accuracy":100,"avg_rt":131,"category":null,"correct":1,"correct_response":"m","count_reset_feedback":0,"count_trial_sequence":40,"response_keyboard_response":"m","response_time":144,"subject_nr":1,"target":null},
{"acc":100,"accuracy":100,"avg_rt":132,"category":null,"correct":1,"correct_response":"m","count_reset_feedback":0,"count_trial_sequence":41,"response_keyboard_response":"m","response_time":146,"subject_nr":1,"target":null},
{"acc":100,"accuracy":100,"avg_rt":131,"category":null,"correct":1,"correct_response":"m","count_reset_feedback":0,"count_trial_sequence":42,"response_keyboard_response":"m","response_time":117,"subject_nr":1,"target":null},
{"acc":100,"accuracy":100,"avg_rt":131,"category":null,"correct":1,"correct_response":"m","count_reset_feedback":0,"count_trial_sequence":43,"response_keyboard_response":"m","response_time":130,"subject_nr":1,"target":null},
{"acc":100,"accuracy":100,"avg_rt":132,"category":null,"correct":1,"correct_response":"m","count_reset_feedback":0,"count_trial_sequence":44,"response_keyboard_response":"m","response_time":166,"subject_nr":1,"target":null},
{"acc":100,"accuracy":100,"avg_rt":132,"category":null,"correct":1,"correct_response":"m","count_reset_feedback":0,"count_trial_sequence":45,"response_keyboard_response":"m","response_time":138,"subject_nr":1,"target":null},
{"acc":100,"accuracy":100,"avg_rt":133,"category":null,"correct":1,"correct_response":"m","count_reset_feedback":0,"count_trial_sequence":46,"response_keyboard_response":"m","response_time":153,"subject_nr":1,"target":null},
{"acc":100,"accuracy":100,"avg_rt":133,"category":null,"correct":1,"correct_response":"m","count_reset_feedback":0,"count_trial_sequence":47,"response_keyboard_response":"m","response_time":138,"subject_nr":1,"target":null},
{"acc":100,"accuracy":100,"avg_rt":133,"category":null,"correct":1,"correct_response":"m","count_reset_feedback":0,"count_trial_sequence":48,"response_keyboard_response":"m","response_time":138,"subject_nr":1,"target":null},
{"acc":100,"accuracy":100,"avg_rt":214,"category":null,"correct":1,"correct_response":"m","count_reset_feedback":0,"count_trial_sequence":49,"response_keyboard_response":"m","response_time":4181,"subject_nr":1,"target":null},

[{"acc":100,"accuracy":100,"avg_rt":74,"category":null,"correct":1,"correct_response":"m","count_reset_feedback":0,"count_trial_sequence":0,"response_keyboard_response":"m","response_time":74,"subject_nr":0,"target":null},
{"acc":100,"accuracy":100,"avg_rt":80,"category":null,"correct":1,"correct_response":"m","count_reset_feedback":0,"count_trial_sequence":1,"response_keyboard_response":"m","response_time":86,"subject_nr":0,"target":null},
{"acc":100,"accuracy":100,"avg_rt":104,"category":null,"correct":1,"correct_response":"m","count_reset_feedback":0,"count_trial_sequence":2,"response_keyboard_response":"m","response_time":151,"subject_nr":0,"target":null},
{"acc":100,"accuracy":100,"avg_rt":104,"category":null,"correct":1,"correct_response":"m","count_reset_feedback":0,"count_trial_sequence":3,"response_keyboard_response":"m","response_time":104,"subject_nr":0,"target":null},
{"acc":100,"accuracy":100,"avg_rt":107,"category":null,"correct":1,"correct_response":"m","count_reset_feedback":0,"count_trial_sequence":4,"response_keyboard_response":"m","response_time":120,"subject_nr":0,"target":null},
{"acc":100,"accuracy":100,"avg_rt":107,"category":null,"correct":1,"correct_response":"m","count_reset_feedback":0,"count_trial_sequence":5,"response_keyboard_response":"m","response_time":106,"subject_nr":0,"target":null},
{"acc":100,"accuracy":100,"avg_rt":107,"category":null,"correct":1,"correct_response":"m","count_reset_feedback":0,"count_trial_sequence":6,"response_keyboard_response":"m","response_time":107,"subject_nr":0,"target":null},
{"acc":100,"accuracy":100,"avg_rt":107,"category":null,"correct":1,"correct_response":"m","count_reset_feedback":0,"count_trial_sequence":7,"response_keyboard_response":"m","response_time":107,"subject_nr":0,"target":null},
{"acc":100,"accuracy":100,"avg_rt":107,"category":null,"correct":1,"correct_response":"m","count_reset_feedback":0,"count_trial_sequence":8,"response_keyboard_response":"m","response_time":105,"subject_nr":0,"target":null},
{"acc":100,"accuracy":100,"avg_rt":108,"category":null,"correct":1,"correct_response":"m","count_reset_feedback":0,"count_trial_sequence":9,"response_keyboard_response":"m","response_time":116,"subject_nr":0,"target":null},
{"acc":100,"accuracy":100,"avg_rt":105,"category":null,"correct":1,"correct_response":"m","count_reset_feedback":0,"count_trial_sequence":10,"response_keyboard_response":"m","response_time":84,"subject_nr":0,"target":null},
{"acc":100,"accuracy":100,"avg_rt":107,"category":null,"correct":1,"correct_response":"m","count_reset_feedback":0,"count_trial_sequence":11,"response_keyboard_response":"m","response_time":124,"subject_nr":0,"target":null},
{"acc":100,"accuracy":100,"avg_rt":108,"category":null,"correct":1,"correct_response":"m","count_reset_feedback":0,"count_trial_sequence":12,"response_keyboard_response":"m","response_time":125,"subject_nr":0,"target":null},
{"acc":100,"accuracy":100,"avg_rt":110,"category":null,"correct":1,"correct_response":"m","count_reset_feedback":0,"count_trial_sequence":13,"response_keyboard_response":"m","response_time":125,"subject_nr":0,"target":null},
{"acc":100,"accuracy":100,"avg_rt":109,"category":null,"correct":1,"correct_response":"m","count_reset_feedback":0,"count_trial_sequence":14,"response_keyboard_response":"m","response_time":95,"subject_nr":0,"target":null},
{"acc":100,"accuracy":100,"avg_rt":112,"category":null,"correct":1,"correct_response":"m","count_reset_feedback":0,"count_trial_sequence":15,"response_keyboard_response":"m","response_time":157,"subject_nr":0,"target":null},
{"acc":100,"accuracy":100,"avg_rt":113,"category":null,"correct":1,"correct_response":"m","count_reset_feedback":0,"count_trial_sequence":16,"response_keyboard_response":"m","response_time":128,"subject_nr":0,"target":null},
{"acc":100,"accuracy":100,"avg_rt":114,"category":null,"correct":1,"correct_response":"m","count_reset_feedback":0,"count_trial_sequence":17,"response_keyboard_response":"m","response_time":141,"subject_nr":0,"target":null},
{"acc":100,"accuracy":100,"avg_rt":115,"category":null,"correct":1,"correct_response":"m","count_reset_feedback":0,"count_trial_sequence":18,"response_keyboard_response":"m","response_time":132,"subject_nr":0,"target":null},
{"acc":100,"accuracy":100,"avg_rt":116,"category":null,"correct":1,"correct_response":"m","count_reset_feedback":0,"count_trial_sequence":19,"response_keyboard_response":"m","response_time":129,"subject_nr":0,"target":null},
{"acc":100,"accuracy":100,"avg_rt":115,"category":null,"correct":1,"correct_response":"m","count_reset_feedback":0,"count_trial_sequence":20,"response_keyboard_response":"m","response_time":102,"subject_nr":0,"target":null},
{"acc":100,"accuracy":100,"avg_rt":115,"category":null,"correct":1,"correct_response":"m","count_reset_feedback":0,"count_trial_sequence":21,"response_keyboard_response":"m","response_time":109,"subject_nr":0,"target":null},
{"acc":100,"accuracy":100,"avg_rt":115,"category":null,"correct":1,"correct_response":"m","count_reset_feedback":0,"count_trial_sequence":22,"response_keyboard_response":"m","response_time":122,"subject_nr":0,"target":null},
{"acc":100,"accuracy":100,"avg_rt":116,"category":null,"correct":1,"correct_response":"m","count_reset_feedback":0,"count_trial_sequence":23,"response_keyboard_response":"m","response_time":146,"subject_nr":0,"target":null},
{"acc":100,"accuracy":100,"avg_rt":117,"category":null,"correct":1,"correct_response":"m","count_reset_feedback":0,"count_trial_sequence":24,"response_keyboard_response":"m","response_time":127,"subject_nr":0,"target":null},
{"acc":100,"accuracy":100,"avg_rt":117,"category":null,"correct":1,"correct_response":"m","count_reset_feedback":0,"count_trial_sequence":25,"response_keyboard_response":"m","response_time":126,"subject_nr":0,"target":null},
{"acc":100,"accuracy":100,"avg_rt":118,"category":null,"correct":1,"correct_response":"m","count_reset_feedback":0,"count_trial_sequence":26,"response_keyboard_response":"m","response_time":150,"subject_nr":0,"target":null},
{"acc":100,"accuracy":100,"avg_rt":118,"category":null,"correct":1,"correct_response":"m","count_reset_feedback":0,"count_trial_sequence":27,"response_keyboard_response":"m","response_time":107,"subject_nr":0,"target":null},
{"acc":100,"accuracy":100,"avg_rt":118,"category":null,"correct":1,"correct_response":"m","count_reset_feedback":0,"count_trial_sequence":28,"response_keyboard_response":"m","response_time":131,"subject_nr":0,"target":null},
{"acc":100,"accuracy":100,"avg_rt":118,"category":null,"correct":1,"correct_response":"m","count_reset_feedback":0,"count_trial_sequence":29,"response_keyboard_response":"m","response_time":106,"subject_nr":0,"target":null},
{"acc":100,"accuracy":100,"avg_rt":120,"category":null,"correct":1,"correct_response":"m","count_reset_feedback":0,"count_trial_sequence":30,"response_keyboard_response":"m","response_time":167,"subject_nr":0,"target":null},
{"acc":100,"accuracy":100,"avg_rt":119,"category":null,"correct":1,"correct_response":"m","count_reset_feedback":0,"count_trial_sequence":31,"response_keyboard_response":"m","response_time":114,"subject_nr":0,"target":null},
{"acc":100,"accuracy":100,"avg_rt":120,"category":null,"correct":1,"correct_response":"m","count_reset_feedback":0,"count_trial_sequence":32,"response_keyboard_response":"m","response_time":122,"subject_nr":0,"target":null},
{"acc":100,"accuracy":100,"avg_rt":120,"category":null,"correct":1,"correct_response":"m","count_reset_feedback":0,"count_trial_sequence":33,"response_keyboard_response":"m","response_time":128,"subject_nr":0,"target":null},
{"acc":100,"accuracy":100,"avg_rt":121,"category":null,"correct":1,"correct_response":"m","count_reset_feedback":0,"count_trial_sequence":34,"response_keyboard_response":"m","response_time":161,"subject_nr":0,"target":null},
{"acc":100,"accuracy":100,"avg_rt":121,"category":null,"correct":1,"correct_response":"m","count_reset_feedback":0,"count_trial_sequence":35,"response_keyboard_response":"m","response_time":106,"subject_nr":0,"target":null},
{"acc":100,"accuracy":100,"avg_rt":122,"category":null,"correct":1,"correct_response":"m","count_reset_feedback":0,"count_trial_sequence":36,"response_keyboard_response":"m","response_time":159,"subject_nr":0,"target":null},
{"acc":100,"accuracy":100,"avg_rt":122,"category":null,"correct":1,"correct_response":"m","count_reset_feedback":0,"count_trial_sequence":37,"response_keyboard_response":"m","response_time":124,"subject_nr":0,"target":null},
{"acc":100,"accuracy":100,"avg_rt":122,"category":null,"correct":1,"correct_response":"m","count_reset_feedback":0,"count_trial_sequence":38,"response_keyboard_response":"m","response_time":150,"subject_nr":0,"target":null},
{"acc":100,"accuracy":100,"avg_rt":123,"category":null,"correct":1,"correct_response":"m","count_reset_feedback":0,"count_trial_sequence":39,"response_keyboard_response":"m","response_time":133,"subject_nr":0,"target":null},
{"acc":100,"accuracy":100,"avg_rt":123,"category":null,"correct":1,"correct_response":"m","count_reset_feedback":0,"count_trial_sequence":40,"response_keyboard_response":"m","response_time":129,"subject_nr":0,"target":null},
{"acc":100,"accuracy":100,"avg_rt":123,"category":null,"correct":1,"correct_response":"m","count_reset_feedback":0,"count_trial_sequence":41,"response_keyboard_response":"m","response_time":148,"subject_nr":0,"target":null},
{"acc":100,"accuracy":100,"avg_rt":123,"category":null,"correct":1,"correct_response":"m","count_reset_feedback":0,"count_trial_sequence":42,"response_keyboard_response":"m","response_time":120,"subject_nr":0,"target":null},
{"acc":100,"accuracy":100,"avg_rt":123,"category":null,"correct":1,"correct_response":"m","count_reset_feedback":0,"count_trial_sequence":43,"response_keyboard_response":"m","response_time":127,"subject_nr":0,"target":null},
{"acc":100,"accuracy":100,"avg_rt":124,"category":null,"correct":1,"correct_response":"m","count_reset_feedback":0,"count_trial_sequence":44,"response_keyboard_response":"m","response_time":132,"subject_nr":0,"target":null},
{"acc":100,"accuracy":100,"avg_rt":124,"category":null,"correct":1,"correct_response":"m","count_reset_feedback":0,"count_trial_sequence":45,"response_keyboard_response":"m","response_time":135,"subject_nr":0,"target":null},
{"acc":100,"accuracy":100,"avg_rt":124,"category":null,"correct":1,"correct_response":"m","count_reset_feedback":0,"count_trial_sequence":46,"response_keyboard_response":"m","response_time":126,"subject_nr":0,"target":null},
{"acc":100,"accuracy":100,"avg_rt":124,"category":null,"correct":1,"correct_response":"m","count_reset_feedback":0,"count_trial_sequence":47,"response_keyboard_response":"m","response_time":105,"subject_nr":0,"target":null},
{"acc":100,"accuracy":100,"avg_rt":124,"category":null,"correct":1,"correct_response":"m","count_reset_feedback":0,"count_trial_sequence":48,"response_keyboard_response":"m","response_time":140,"subject_nr":0,"target":null},
{"acc":100,"accuracy":100,"avg_rt":124,"category":null,"correct":1,"correct_response":"m","count_reset_feedback":0,"count_trial_sequence":49,"response_keyboard_response":"m","response_time":133,"subject_nr":0,"target":null},

[{"acc":100,"accuracy":100,"avg_rt":78,"category":null,"correct":1,"correct_response":"m","count_reset_feedback":0,"count_trial_sequence":0,"response_keyboard_response":"m","response_time":78,"subject_nr":1,"target":null},
{"acc":100,"accuracy":100,"avg_rt":100,"category":null,"correct":1,"correct_response":"m","count_reset_feedback":0,"count_trial_sequence":1,"response_keyboard_response":"m","response_time":122,"subject_nr":1,"target":null},
{"acc":100,"accuracy":100,"avg_rt":106,"category":null,"correct":1,"correct_response":"m","count_reset_feedback":0,"count_trial_sequence":2,"response_keyboard_response":"m","response_time":118,"subject_nr":1,"target":null},
{"acc":100,"accuracy":100,"avg_rt":107,"category":null,"correct":1,"correct_response":"m","count_reset_feedback":0,"count_trial_sequence":3,"response_keyboard_response":"m","response_time":111,"subject_nr":1,"target":null},
{"acc":100,"accuracy":100,"avg_rt":105,"category":null,"correct":1,"correct_response":"m","count_reset_feedback":0,"count_trial_sequence":4,"response_keyboard_response":"m","response_time":96,"subject_nr":1,"target":null},
{"acc":100,"accuracy":100,"avg_rt":102,"category":null,"correct":1,"correct_response":"m","count_reset_feedback":0,"count_trial_sequence":5,"response_keyboard_response":"m","response_time":87,"subject_nr":1,"target":null},
{"acc":100,"accuracy":100,"avg_rt":105,"category":null,"correct":1,"correct_response":"m","count_reset_feedback":0,"count_trial_sequence":6,"response_keyboard_response":"m","response_time":123,"subject_nr":1,"target":null},
{"acc":100,"accuracy":100,"avg_rt":108,"category":null,"correct":1,"correct_response":"m","count_reset_feedback":0,"count_trial_sequence":7,"response_keyboard_response":"m","response_time":129,"subject_nr":1,"target":null},
{"acc":100,"accuracy":100,"avg_rt":109,"category":null,"correct":1,"correct_response":"m","count_reset_feedback":0,"count_trial_sequence":8,"response_keyboard_response":"m","response_time":116,"subject_nr":1,"target":null},
{"acc":100,"accuracy":100,"avg_rt":110,"category":null,"correct":1,"correct_response":"m","count_reset_feedback":0,"count_trial_sequence":9,"response_keyboard_response":"m","response_time":123,"subject_nr":1,"target":null},
{"acc":100,"accuracy":100,"avg_rt":109,"category":null,"correct":1,"correct_response":"m","count_reset_feedback":0,"count_trial_sequence":10,"response_keyboard_response":"m","response_time":98,"subject_nr":1,"target":null},
{"acc":100,"accuracy":100,"avg_rt":108,"category":null,"correct":1,"correct_response":"m","count_reset_feedback":0,"count_trial_sequence":11,"response_keyboard_response":"m","response_time":90,"subject_nr":1,"target":null},
{"acc":100,"accuracy":100,"avg_rt":119,"category":null,"correct":1,"correct_response":"m","count_reset_feedback":0,"count_trial_sequence":12,"response_keyboard_response":"m","response_time":252,"subject_nr":1,"target":null},
{"acc":100,"accuracy":100,"avg_rt":121,"category":null,"correct":1,"correct_response":"m","count_reset_feedback":0,"count_trial_sequence":13,"response_keyboard_response":"m","response_time":154,"subject_nr":1,"target":null},
{"acc":100,"accuracy":100,"avg_rt":125,"category":null,"correct":1,"correct_response":"m","count_reset_feedback":0,"count_trial_sequence":14,"response_keyboard_response":"m","response_time":172,"subject_nr":1,"target":null},
{"acc":100,"accuracy":100,"avg_rt":126,"category":null,"correct":1,"correct_response":"m","count_reset_feedback":0,"count_trial_sequence":15,"response_keyboard_response":"m","response_time":139,"subject_nr":1,"target":null},
{"acc":100,"accuracy":100,"avg_rt":127,"category":null,"correct":1,"correct_response":"m","count_reset_feedback":0,"count_trial_sequence":16,"response_keyboard_response":"m","response_time":149,"subject_nr":1,"target":null},
{"acc":100,"accuracy":100,"avg_rt":126,"category":null,"correct":1,"correct_response":"m","count_reset_feedback":0,"count_trial_sequence":17,"response_keyboard_response":"m","response_time":117,"subject_nr":1,"target":null},
{"acc":100,"accuracy":100,"avg_rt":125,"category":null,"correct":1,"correct_response":"m","count_reset_feedback":0,"count_trial_sequence":18,"response_keyboard_response":"m","response_time":110,"subject_nr":1,"target":null},
{"acc":100,"accuracy":100,"avg_rt":126,"category":null,"correct":1,"correct_response":"m","count_reset_feedback":0,"count_trial_sequence":19,"response_keyboard_response":"m","response_time":130,"subject_nr":1,"target":null},
{"acc":100,"accuracy":100,"avg_rt":126,"category":null,"correct":1,"correct_response":"m","count_reset_feedback":0,"count_trial_sequence":20,"response_keyboard_response":"m","response_time":137,"subject_nr":1,"target":null},
{"acc":100,"accuracy":100,"avg_rt":126,"category":null,"correct":1,"correct_response":"m","count_reset_feedback":0,"count_trial_sequence":21,"response_keyboard_response":"m","response_time":119,"subject_nr":1,"target":null},
{"acc":100,"accuracy":100,"avg_rt":126,"category":null,"correct":1,"correct_response":"m","count_reset_feedback":0,"count_trial_sequence":22,"response_keyboard_response":"m","response_time":117,"subject_nr":1,"target":null},
{"acc":100,"accuracy":100,"avg_rt":126,"category":null,"correct":1,"correct_response":"m","count_reset_feedback":0,"count_trial_sequence":23,"response_keyboard_response":"m","response_time":139,"subject_nr":1,"target":null},
{"acc":100,"accuracy":100,"avg_rt":126,"category":null,"correct":1,"correct_response":"m","count_reset_feedback":0,"count_trial_sequence":24,"response_keyboard_response":"m","response_time":125,"subject_nr":1,"target":null},
{"acc":100,"accuracy":100,"avg_rt":126,"category":null,"correct":1,"correct_response":"m","count_reset_feedback":0,"count_trial_sequence":25,"response_keyboard_response":"m","response_time":133,"subject_nr":1,"target":null},
{"acc":100,"accuracy":100,"avg_rt":126,"category":null,"correct":1,"correct_response":"m","count_reset_feedback":0,"count_trial_sequence":26,"response_keyboard_response":"m","response_time":120,"subject_nr":1,"target":null},
{"acc":100,"accuracy":100,"avg_rt":127,"category":null,"correct":1,"correct_response":"m","count_reset_feedback":0,"count_trial_sequence":27,"response_keyboard_response":"m","response_time":143,"subject_nr":1,"target":null},
{"acc":100,"accuracy":100,"avg_rt":126,"category":null,"correct":1,"correct_response":"m","count_reset_feedback":0,"count_trial_sequence":28,"response_keyboard_response":"m","response_time":114,"subject_nr":1,"target":null},
{"acc":100,"accuracy":100,"avg_rt":126,"category":null,"correct":1,"correct_response":"m","count_reset_feedback":0,"count_trial_sequence":29,"response_keyboard_response":"m","response_time":114,"subject_nr":1,"target":null},
{"acc":100,"accuracy":100,"avg_rt":125,"category":null,"correct":1,"correct_response":"m","count_reset_feedback":0,"count_trial_sequence":30,"response_keyboard_response":"m","response_time":107,"subject_nr":1,"target":null},
{"acc":100,"accuracy":100,"avg_rt":125,"category":null,"correct":1,"correct_response":"m","count_reset_feedback":0,"count_trial_sequence":31,"response_keyboard_response":"m","response_time":120,"subject_nr":1,"target":null},
{"acc":100,"accuracy":100,"avg_rt":126,"category":null,"correct":1,"correct_response":"m","count_reset_feedback":0,"count_trial_sequence":32,"response_keyboard_response":"m","response_time":147,"subject_nr":1,"target":null},
{"acc":100,"accuracy":100,"avg_rt":127,"category":null,"correct":1,"correct_response":"m","count_reset_feedback":0,"count_trial_sequence":33,"response_keyboard_response":"m","response_time":154,"subject_nr":1,"target":null},
{"acc":100,"accuracy":100,"avg_rt":127,"category":null,"correct":1,"correct_response":"m","count_reset_feedback":0,"count_trial_sequence":34,"response_keyboard_response":"m","response_time":143,"subject_nr":1,"target":null},
{"acc":100,"accuracy":100,"avg_rt":127,"category":null,"correct":1,"correct_response":"m","count_reset_feedback":0,"count_trial_sequence":35,"response_keyboard_response":"m","response_time":142,"subject_nr":1,"target":null},
{"acc":100,"accuracy":100,"avg_rt":127,"category":null,"correct":1,"correct_response":"m","count_reset_feedback":0,"count_trial_sequence":36,"response_keyboard_response":"m","response_time":124,"subject_nr":1,"target":null},
{"acc":100,"accuracy":100,"avg_rt":127,"category":null,"correct":1,"correct_response":"m","count_reset_feedback":0,"count_trial_sequence":37,"response_keyboard_response":"m","response_time":112,"subject_nr":1,"target":null},
{"acc":100,"accuracy":100,"avg_rt":128,"category":null,"correct":1,"correct_response":"m","count_reset_feedback":0,"count_trial_sequence":38,"response_keyboard_response":"m","response_time":158,"subject_nr":1,"target":null},
{"acc":100,"accuracy":100,"avg_rt":128,"category":null,"correct":1,"correct_response":"m","count_reset_feedback":0,"count_trial_sequence":39,"response_keyboard_response":"m","response_time":131,"subject_nr":1,"target":null},
{"acc":100,"accuracy":100,"avg_rt":128,"category":null,"correct":1,"correct_response":"m","count_reset_feedback":0,"count_trial_sequence":40,"response_keyboard_response":"m","response_time":127,"subject_nr":1,"target":null},
{"acc":100,"accuracy":100,"avg_rt":128,"category":null,"correct":1,"correct_response":"m","count_reset_feedback":0,"count_trial_sequence":41,"response_keyboard_response":"m","response_time":117,"subject_nr":1,"target":null},
{"acc":100,"accuracy":100,"avg_rt":127,"category":null,"correct":1,"correct_response":"m","count_reset_feedback":0,"count_trial_sequence":42,"response_keyboard_response":"m","response_time":123,"subject_nr":1,"target":null},
{"acc":100,"accuracy":100,"avg_rt":128,"category":null,"correct":1,"correct_response":"m","count_reset_feedback":0,"count_trial_sequence":43,"response_keyboard_response":"m","response_time":163,"subject_nr":1,"target":null},
{"acc":100,"accuracy":100,"avg_rt":128,"category":null,"correct":1,"correct_response":"m","count_reset_feedback":0,"count_trial_sequence":44,"response_keyboard_response":"m","response_time":137,"subject_nr":1,"target":null},
{"acc":100,"accuracy":100,"avg_rt":129,"category":null,"correct":1,"correct_response":"m","count_reset_feedback":0,"count_trial_sequence":45,"response_keyboard_response":"m","response_time":152,"subject_nr":1,"target":null},
{"acc":100,"accuracy":100,"avg_rt":129,"category":null,"correct":1,"correct_response":"m","count_reset_feedback":0,"count_trial_sequence":46,"response_keyboard_response":"m","response_time":133,"subject_nr":1,"target":null},
{"acc":100,"accuracy":100,"avg_rt":129,"category":null,"correct":1,"correct_response":"m","count_reset_feedback":0,"count_trial_sequence":47,"response_keyboard_response":"m","response_time":138,"subject_nr":1,"target":null},
{"acc":100,"accuracy":100,"avg_rt":129,"category":null,"correct":1,"correct_response":"m","count_reset_feedback":0,"count_trial_sequence":48,"response_keyboard_response":"m","response_time":137,"subject_nr":1,"target":null},
{"acc":100,"accuracy":100,"avg_rt":130,"category":null,"correct":1,"correct_response":"m","count_reset_feedback":0,"count_trial_sequence":49,"response_keyboard_response":"m","response_time":145,"subject_nr":1,"target":null},

[{"acc":100,"accuracy":100,"avg_rt":61,"category":null,"correct":1,"correct_response":"m","count_reset_feedback":0,"count_trial_sequence":0,"response_keyboard_response":"m","response_time":61,"subject_nr":0,"target":null},
{"acc":100,"accuracy":100,"avg_rt":80,"category":null,"correct":1,"correct_response":"m","count_reset_feedback":0,"count_trial_sequence":1,"response_keyboard_response":"m","response_time":99,"subject_nr":0,"target":null},
{"acc":100,"accuracy":100,"avg_rt":89,"category":null,"correct":1,"correct_response":"m","count_reset_feedback":0,"count_trial_sequence":2,"response_keyboard_response":"m","response_time":108,"subject_nr":0,"target":null},
{"acc":100,"accuracy":100,"avg_rt":96,"category":null,"correct":1,"correct_response":"m","count_reset_feedback":0,"count_trial_sequence":3,"response_keyboard_response":"m","response_time":114,"subject_nr":0,"target":null},
{"acc":100,"accuracy":100,"avg_rt":97,"category":null,"correct":1,"correct_response":"m","count_reset_feedback":0,"count_trial_sequence":4,"response_keyboard_response":"m","response_time":103,"subject_nr":0,"target":null},
{"acc":100,"accuracy":100,"avg_rt":98,"category":null,"correct":1,"correct_response":"m","count_reset_feedback":0,"count_trial_sequence":5,"response_keyboard_response":"m","response_time":101,"subject_nr":0,"target":null},
{"acc":100,"accuracy":100,"avg_rt":99,"category":null,"correct":1,"correct_response":"m","count_reset_feedback":0,"count_trial_sequence":6,"response_keyboard_response":"m","response_time":105,"subject_nr":0,"target":null},
{"acc":100,"accuracy":100,"avg_rt":100,"category":null,"correct":1,"correct_response":"m","count_reset_feedback":0,"count_trial_sequence":7,"response_keyboard_response":"m","response_time":112,"subject_nr":0,"target":null},
{"acc":100,"accuracy":100,"avg_rt":101,"category":null,"correct":1,"correct_response":"m","count_reset_feedback":0,"count_trial_sequence":8,"response_keyboard_response":"m","response_time":108,"subject_nr":0,"target":null},
{"acc":100,"accuracy":100,"avg_rt":104,"category":null,"correct":1,"correct_response":"m","count_reset_feedback":0,"count_trial_sequence":9,"response_keyboard_response":"m","response_time":127,"subject_nr":0,"target":null},
{"acc":100,"accuracy":100,"avg_rt":119,"category":null,"correct":1,"correct_response":"m","count_reset_feedback":0,"count_trial_sequence":10,"response_keyboard_response":"m","response_time":268,"subject_nr":0,"target":null},
{"acc":100,"accuracy":100,"avg_rt":120,"category":null,"correct":1,"correct_response":"m","count_reset_feedback":0,"count_trial_sequence":11,"response_keyboard_response":"m","response_time":134,"subject_nr":0,"target":null},
{"acc":100,"accuracy":100,"avg_rt":122,"category":null,"correct":1,"correct_response":"m","count_reset_feedback":0,"count_trial_sequence":12,"response_keyboard_response":"m","response_time":140,"subject_nr":0,"target":null},
{"acc":100,"accuracy":100,"avg_rt":122,"category":null,"correct":1,"correct_response":"m","count_reset_feedback":0,"count_trial_sequence":13,"response_keyboard_response":"m","response_time":129,"subject_nr":0,"target":null},
{"acc":100,"accuracy":100,"avg_rt":122,"category":null,"correct":1,"correct_response":"m","count_reset_feedback":0,"count_trial_sequence":14,"response_keyboard_response":"m","response_time":119,"subject_nr":0,"target":null},
{"acc":100,"accuracy":100,"avg_rt":121,"category":null,"correct":1,"correct_response":"m","count_reset_feedback":0,"count_trial_sequence":15,"response_keyboard_response":"m","response_time":100,"subject_nr":0,"target":null},
{"acc":100,"accuracy":100,"avg_rt":121,"category":null,"correct":1,"correct_response":"m","count_reset_feedback":0,"count_trial_sequence":16,"response_keyboard_response":"m","response_time":122,"subject_nr":0,"target":null},
{"acc":100,"accuracy":100,"avg_rt":120,"category":null,"correct":1,"correct_response":"m","count_reset_feedback":0,"count_trial_sequence":17,"response_keyboard_response":"m","response_time":107,"subject_nr":0,"target":null},
{"acc":100,"accuracy":100,"avg_rt":120,"category":null,"correct":1,"correct_response":"m","count_reset_feedback":0,"count_trial_sequence":18,"response_keyboard_response":"m","response_time":115,"subject_nr":0,"target":null},
{"acc":100,"accuracy":100,"avg_rt":120,"category":null,"correct":1,"correct_response":"m","count_reset_feedback":0,"count_trial_sequence":19,"response_keyboard_response":"m","response_time":120,"subject_nr":0,"target":null},
{"acc":100,"accuracy":100,"avg_rt":120,"category":null,"correct":1,"correct_response":"m","count_reset_feedback":0,"count_trial_sequence":20,"response_keyboard_response":"m","response_time":121,"subject_nr":0,"target":null},
{"acc":100,"accuracy":100,"avg_rt":119,"category":null,"correct":1,"correct_response":"m","count_reset_feedback":0,"count_trial_sequence":21,"response_keyboard_response":"m","response_time":111,"subject_nr":0,"target":null},
{"acc":100,"accuracy":100,"avg_rt":120,"category":null,"correct":1,"correct_response":"m","count_reset_feedback":0,"count_trial_sequence":22,"response_keyboard_response":"m","response_time":133,"subject_nr":0,"target":null},
{"acc":100,"accuracy":100,"avg_rt":120,"category":null,"correct":1,"correct_response":"m","count_reset_feedback":0,"count_trial_sequence":23,"response_keyboard_response":"m","response_time":128,"subject_nr":0,"target":null},
{"acc":100,"accuracy":100,"avg_rt":120,"category":null,"correct":1,"correct_response":"m","count_reset_feedback":0,"count_trial_sequence":24,"response_keyboard_response":"m","response_time":125,"subject_nr":0,"target":null},
{"acc":100,"accuracy":100,"avg_rt":120,"category":null,"correct":1,"correct_response":"m","count_reset_feedback":0,"count_trial_sequence":25,"response_keyboard_response":"m","response_time":107,"subject_nr":0,"target":null},
{"acc":100,"accuracy":100,"avg_rt":120,"category":null,"correct":1,"correct_response":"m","count_reset_feedback":0,"count_trial_sequence":26,"response_keyboard_response":"m","response_time":124,"subject_nr":0,"target":null},
{"acc":100,"accuracy":100,"avg_rt":120,"category":null,"correct":1,"correct_response":"m","count_reset_feedback":0,"count_trial_sequence":27,"response_keyboard_response":"m","response_time":121,"subject_nr":0,"target":null},
{"acc":100,"accuracy":100,"avg_rt":120,"category":null,"correct":1,"correct_response":"m","count_reset_feedback":0,"count_trial_sequence":28,"response_keyboard_response":"m","response_time":111,"subject_nr":0,"target":null},
{"acc":100,"accuracy":100,"avg_rt":119,"category":null,"correct":1,"correct_response":"m","count_reset_feedback":0,"count_trial_sequence":29,"response_keyboard_response":"m","response_time":104,"subject_nr":0,"target":null},
{"acc":100,"accuracy":100,"avg_rt":119,"category":null,"correct":1,"correct_response":"m","count_reset_feedback":0,"count_trial_sequence":30,"response_keyboard_response":"m","response_time":122,"subject_nr":0,"target":null},
{"acc":100,"accuracy":100,"avg_rt":120,"category":null,"correct":1,"correct_response":"m","count_reset_feedback":0,"count_trial_sequence":31,"response_keyboard_response":"m","response_time":129,"subject_nr":0,"target":null},
{"acc":100,"accuracy":100,"avg_rt":120,"category":null,"correct":1,"correct_response":"m","count_reset_feedback":0,"count_trial_sequence":32,"response_keyboard_response":"m","response_time":134,"subject_nr":0,"target":null},
{"acc":100,"accuracy":100,"avg_rt":120,"category":null,"correct":1,"correct_response":"m","count_reset_feedback":0,"count_trial_sequence":33,"response_keyboard_response":"m","response_time":116,"subject_nr":0,"target":null},
{"acc":100,"accuracy":100,"avg_rt":121,"category":null,"correct":1,"correct_response":"m","count_reset_feedback":0,"count_trial_sequence":34,"response_keyboard_response":"m","response_time":147,"subject_nr":0,"target":null},
{"acc":100,"accuracy":100,"avg_rt":121,"category":null,"correct":1,"correct_response":"m","count_reset_feedback":0,"count_trial_sequence":35,"response_keyboard_response":"m","response_time":129,"subject_nr":0,"target":null},
{"acc":100,"accuracy":100,"avg_rt":121,"category":null,"correct":1,"correct_response":"m","count_reset_feedback":0,"count_trial_sequence":36,"response_keyboard_response":"m","response_time":136,"subject_nr":0,"target":null},
{"acc":100,"accuracy":100,"avg_rt":121,"category":null,"correct":1,"correct_response":"m","count_reset_feedback":0,"count_trial_sequence":37,"response_keyboard_response":"m","response_time":117,"subject_nr":0,"target":null},
{"acc":100,"accuracy":100,"avg_rt":122,"category":null,"correct":1,"correct_response":"m","count_reset_feedback":0,"count_trial_sequence":38,"response_keyboard_response":"m","response_time":132,"subject_nr":0,"target":null},
{"acc":100,"accuracy":100,"avg_rt":121,"category":null,"correct":1,"correct_response":"m","count_reset_feedback":0,"count_trial_sequence":39,"response_keyboard_response":"m","response_time":118,"subject_nr":0,"target":null},
{"acc":100,"accuracy":100,"avg_rt":122,"category":null,"correct":1,"correct_response":"m","count_reset_feedback":0,"count_trial_sequence":40,"response_keyboard_response":"m","response_time":128,"subject_nr":0,"target":null},
{"acc":100,"accuracy":100,"avg_rt":122,"category":null,"correct":1,"correct_response":"m","count_reset_feedback":0,"count_trial_sequence":41,"response_keyboard_response":"m","response_time":128,"subject_nr":0,"target":null},
{"acc":100,"accuracy":100,"avg_rt":121,"category":null,"correct":1,"correct_response":"m","count_reset_feedback":0,"count_trial_sequence":42,"response_keyboard_response":"m","response_time":111,"subject_nr":0,"target":null},
{"acc":100,"accuracy":100,"avg_rt":122,"category":null,"correct":1,"correct_response":"m","count_reset_feedback":0,"count_trial_sequence":43,"response_keyboard_response":"m","response_time":123,"subject_nr":0,"target":null},
