acc,accuracy,avg_rt,browser_codename,browser_name,browser_version,category,correct,correct_response,count_reset_feedback,count_trial_sequence,date_startdate,date_startdateUTC,date_starttime,experiment_debug,experiment_parameters,experiment_pilot,experiment_taskname,experiment_taskversion,jatosStudyResultId,jatosVersion,queryParams_batchId,queryParams_generalMultiple,response_keyboard_response,response_time,screen_availableHeight,screen_availableWidth,screen_colorDepth,screen_height,screen_pixelDepth,screen_screenX,screen_screenY,screen_width,subject_nr,system_os,target
100,100,100,,,,None,1,m,0,0,,,,,,,,,,,,,m,100,,,,,,,,,0,,None
100,100,122,,,,None,1,m,0,1,,,,,,,,,,,,,m,143,,,,,,,,,0,,None
100,100,117,,,,None,1,m,0,2,,,,,,,,,,,,,m,109,,,,,,,,,0,,None
100,100,121,,,,None,1,m,0,3,,,,,,,,,,,,,m,132,,,,,,,,,0,,None
100,100,118,,,,None,1,m,0,4,,,,,,,,,,,,,m,108,,,,,,,,,0,,None
100,100,109,,,,None,1,m,0,5,,,,,,,,,,,,,m,62,,,,,,,,,0,,None
100,100,110,,,,None,1,m,0,6,,,,,,,,,,,,,m,117,,,,,,,,,0,,None
100,100,113,,,,None,1,m,0,7,,,,,,,,,,,,,m,130,,,,,,,,,0,,None
100,100,114,,,,None,1,m,0,8,,,,,,,,,,,,,m,124,,,,,,,,,0,,None
100,100,113,,,,None,1,m,0,9,,,,,,,,,,,,,m,104,,,,,,,,,0,,None
100,100,114,,,,None,1,m,0,10,,,,,,,,,,,,,m,127,,,,,,,,,0,,None
100,100,115,,,,None,1,m,0,11,,,,,,,,,,,,,m,119,,,,,,,,,0,,None
100,100,115,,,,None,1,m,0,12,,,,,,,,,,,,,m,121,,,,,,,,,0,,None
100,100,115,,,,None,1,m,0,13,,,,,,,,,,,,,m,115,,,,,,,,,0,,None
100,100,116,,,,None,1,m,0,14,,,,,,,,,,,,,m,134,,,,,,,,,0,,None
100,100,116,,,,None,1,m,0,15,,,,,,,,,,,,,m,116,,,,,,,,,0,,None
100,100,118,,,,None,1,m,0,16,,,,,,,,,,,,,m,145,,,,,,,,,0,,None
100,100,120,,,,None,1,m,0,17,,,,,,,,,,,,,m,153,,,,,,,,,0,,None
100,100,121,,,,None,1,m,0,18,,,,,,,,,,,,,m,137,,,,,,,,,0,,None
100,100,122,,,,None,1,m,0,19,,,,,,,,,,,,,m,146,,,,,,,,,0,,None
100,100,122,,,,None,1,m,0,20,,,,,,,,,,,,,m,121,,,,,,,,,0,,None
100,100,123,,,,None,1,m,0,21,,,,,,,,,,,,,m,139,,,,,,,,,0,,None
100,100,124,,,,None,1,m,0,22,,,,,,,,,,,,,m,146,,,,,,,,,0,,None
100,100,123,,,,None,1,m,0,23,,,,,,,,,,,,,m,114,,,,,,,,,0,,None
100,100,122,,,,None,1,m,0,24,,,,,,,,,,,,,m,98,,,,,,,,,0,,None
100,100,123,,,,None,1,m,0,25,,,,,,,,,,,,,m,136,,,,,,,,,0,,None
100,100,122,,,,None,1,m,0,26,,,,,,,,,,,,,m,104,,,,,,,,,0,,None
100,100,123,,,,None,1,m,0,27,,,,,,,,,,,,,m,155,,,,,,,,,0,,None
100,100,124,,,,None,1,m,0,28,,,,,,,,,,,,,m,134,,,,,,,,,0,,None
100,100,124,,,,None,1,m,0,29,,,,,,,,,,,,,m,119,,,,,,,,,0,,None
100,100,124,,,,None,1,m,0,30,,,,,,,,,,,,,m,133,,,,,,,,,0,,None
100,100,124,,,,None,1,m,0,31,,,,,,,,,,,,,m,136,,,,,,,,,0,,None
100,100,125,,,,None,1,m,0,32,,,,,,,,,,,,,m,161,,,,,,,,,0,,None
100,100,125,,,,None,1,m,0,33,,,,,,,,,,,,,m,119,,,,,,,,,0,,None
100,100,125,,,,None,1,m,0,34,,,,,,,,,,,,,m,131,,,,,,,,,0,,None
100,100,126,,,,None,1,m,0,35,,,,,,,,,,,,,m,148,,,,,,,,,0,,None
100,100,127,,,,None,1,m,0,36,,,,,,,,,,,,,m,146,,,,,,,,,0,,None
100,100,127,,,,None,1,m,0,37,,,,,,,,,,,,,m,152,,,,,,,,,0,,None
100,100,127,,,,None,1,m,0,38,,,,,,,,,,,,,m,136,,,,,,,,,0,,None
100,100,128,,,,None,1,m,0,39,,,,,,,,,,,,,m,148,,,,,,,,,0,,None
100,100,128,,,,None,1,m,0,40,,,,,,,,,,,,,m,142,,,,,,,,,0,,None
100,100,128,,,,None,1,m,0,41,,,,,,,,,,,,,m,130,,,,,,,,,0,,None
100,100,129,,,,None,1,m,0,42,,,,,,,,,,,,,m,148,,,,,,,,,0,,None
100,100,129,,,,None,1,m,0,43,,,,,,,,,,,,,m,137,,,,,,,,,0,,None
100,100,129,,,,None,1,m,0,44,,,,,,,,,,,,,m,124,,,,,,,,,0,,None
100,100,130,,,,None,1,m,0,45,,,,,,,,,,,,,m,169,,,,,,,,,0,,None
100,100,129,,,,None,1,m,0,46,,,,,,,,,,,,,m,117,,,,,,,,,0,,None
100,100,129,,,,None,1,m,0,47,,,,,,,,,,,,,m,120,,,,,,,,,0,,None
100,100,130,,,,None,1,m,0,48,,,,,,,,,,,,,m,144,,,,,,,,,0,,None
100,100,130,,,,None,1,m,0,49,,,,,,,,,,,,,m,141,,,,,,,,,0,,None
100,100,80,,,,None,1,m,0,0,,,,,,,,,,,,,m,80,,,,,,,,,1,,None
100,100,101,,,,None,1,m,0,1,,,,,,,,,,,,,m,122,,,,,,,,,1,,None
100,100,111,,,,None,1,m,0,2,,,,,,,,,,,,,m,131,,,,,,,,,1,,None
100,100,112,,,,None,1,m,0,3,,,,,,,,,,,,,m,115,,,,,,,,,1,,None
100,100,109,,,,None,1,m,0,4,,,,,,,,,,,,,m,99,,,,,,,,,1,,None
100,100,108,,,,None,1,m,0,5,,,,,,,,,,,,,m,103,,,,,,,,,1,,None
100,100,108,,,,None,1,m,0,6,,,,,,,,,,,,,m,108,,,,,,,,,1,,None
100,100,109,,,,None,1,m,0,7,,,,,,,,,,,,,m,113,,,,,,,,,1,,None
100,100,110,,,,None,1,m,0,8,,,,,,,,,,,,,m,119,,,,,,,,,1,,None
100,100,112,,,,None,1,m,0,9,,,,,,,,,,,,,m,133,,,,,,,,,1,,None
100,100,111,,,,None,1,m,0,10,,,,,,,,,,,,,m,101,,,,,,,,,1,,None
100,100,111,,,,None,1,m,0,11,,,,,,,,,,,,,m,105,,,,,,,,,1,,None
100,100,112,,,,None,1,m,0,12,,,,,,,,,,,,,m,124,,,,,,,,,1,,None
100,100,113,,,,None,1,m,0,13,,,,,,,,,,,,,m,130,,,,,,,,,1,,None
100,100,113,,,,None,1,m,0,14,,,,,,,,,,,,,m,108,,,,,,,,,1,,None
100,100,114,,,,None,1,m,0,15,,,,,,,,,,,,,m,129,,,,,,,,,1,,None
100,100,114,,,,None,1,m,0,16,,,,,,,,,,,,,m,121,,,,,,,,,1,,None
100,100,115,,,,None,1,m,0,17,,,,,,,,,,,,,m,122,,,,,,,,,1,,None
100,100,116,,,,None,1,m,0,18,,,,,,,,,,,,,m,142,,,,,,,,,1,,None
100,100,116,,,,None,1,m,0,19,,,,,,,,,,,,,m,118,,,,,,,,,1,,None
100,100,117,,,,None,1,m,0,20,,,,,,,,,,,,,m,131,,,,,,,,,1,,None
100,100,117,,,,None,1,m,0,21,,,,,,,,,,,,,m,114,,,,,,,,,1,,None
100,100,116,,,,None,1,m,0,22,,,,,,,,,,,,,m,106,,,,,,,,,1,,None
100,100,116,,,,None,1,m,0,23,,,,,,,,,,,,,m,103,,,,,,,,,1,,None
100,100,116,,,,None,1,m,0,24,,,,,,,,,,,,,m,122,,,,,,,,,1,,None
100,100,116,,,,None,1,m,0,25,,,,,,,,,,,,,m,129,,,,,,,,,1,,None
100,100,117,,,,None,1,m,0,26,,,,,,,,,,,,,m,123,,,,,,,,,1,,None
100,100,117,,,,None,1,m,0,27,,,,,,,,,,,,,m,137,,,,,,,,,1,,None
100,100,118,,,,None,1,m,0,28,,,,,,,,,,,,,m,125,,,,,,,,,1,,None
100,100,118,,,,None,1,m,0,29,,,,,,,,,,,,,m,132,,,,,,,,,1,,None
100,100,118,,,,None,1,m,0,30,,,,,,,,,,,,,m,115,,,,,,,,,1,,None
100,100,118,,,,None,1,m,0,31,,,,,,,,,,,,,m,118,,,,,,,,,1,,None
100,100,118,,,,None,1,m,0,32,,,,,,,,,,,,,m,119,,,,,,,,,1,,None
100,100,119,,,,None,1,m,0,33,,,,,,,,,,,,,m,149,,,,,,,,,1,,None
100,100,119,,,,None,1,m,0,34,,,,,,,,,,,,,m,112,,,,,,,,,1,,None
100,100,119,,,,None,1,m,0,35,,,,,,,,,,,,,m,123,,,,,,,,,1,,None
100,100,120,,,,None,1,m,0,36,,,,,,,,,,,,,m,146,,,,,,,,,1,,None
100,100,120,,,,None,1,m,0,37,,,,,,,,,,,,,m,123,,,,,,,,,1,,None
100,100,120,,,,None,1,m,0,38,,,,,,,,,,,,,m,148,,,,,,,,,1,,None
100,100,121,,,,None,1,m,0,39,,,,,,,,,,,,,m,129,,,,,,,,,1,,None
100,100,121,,,,None,1,m,0,40,,,,,,,,,,,,,m,114,,,,,,,,,1,,None
100,100,121,,,,None,1,m,0,41,,,,,,,,,,,,,m,146,,,,,,,,,1,,None
100,100,122,,,,None,1,m,0,42,,,,,,,,,,,,,m,145,,,,,,,,,1,,None
100,100,122,,,,None,1,m,0,43,,,,,,,,,,,,,m,128,,,,,,,,,1,,None
100,100,122,,,,None,1,m,0,44,,,,,,,,,,,,,m,131,,,,,,,,,1,,None
100,100,122,,,,None,1,m,0,45,,,,,,,,,,,,,m,117,,,,,,,,,1,,None
100,100,122,,,,None,1,m,0,46,,,,,,,,,,,,,m,143,,,,,,,,,1,,None
100,100,123,,,,None,1,m,0,47,,,,,,,,,,,,,m,147,,,,,,,,,1,,None
100,100,123,,,,None,1,m,0,48,,,,,,,,,,,,,m,133,,,,,,,,,1,,None
100,100,123,,,,None,1,m,0,49,,,,,,,,,,,,,m,123,,,,,,,,,1,,None
100,100,94,,,,None,1,m,0,0,,,,,,,,,,,,,m,94,,,,,,,,,1,,None
100,100,99,,,,None,1,m,0,1,,,,,,,,,,,,,m,104,,,,,,,,,1,,None
100,100,104,,,,None,1,m,0,2,,,,,,,,,,,,,m,113,,,,,,,,,1,,None
100,100,101,,,,None,1,m,0,3,,,,,,,,,,,,,m,93,,,,,,,,,1,,None
100,100,108,,,,None,1,m,0,4,,,,,,,,,,,,,m,136,,,,,,,,,1,,None
100,100,109,,,,None,1,m,0,5,,,,,,,,,,,,,m,113,,,,,,,,,1,,None
100,100,107,,,,None,1,m,0,6,,,,,,,,,,,,,m,93,,,,,,,,,1,,None
100,100,107,,,,None,1,m,0,7,,,,,,,,,,,,,m,106,,,,,,,,,1,,None
100,100,108,,,,None,1,m,0,8,,,,,,,,,,,,,m,119,,,,,,,,,1,,None
100,100,106,,,,None,1,m,0,9,,,,,,,,,,,,,m,87,,,,,,,,,1,,None
100,100,108,,,,None,1,m,0,10,,,,,,,,,,,,,m,133,,,,,,,,,1,,None
100,100,108,,,,None,1,m,0,11,,,,,,,,,,,,,m,108,,,,,,,,,1,,None
100,100,110,,,,None,1,m,0,12,,,,,,,,,,,,,m,133,,,,,,,,,1,,None
100,100,111,,,,None,1,m,0,13,,,,,,,,,,,,,m,128,,,,,,,,,1,,None
100,100,112,,,,None,1,m,0,14,,,,,,,,,,,,,m,118,,,,,,,,,1,,None
100,100,112,,,,None,1,m,0,15,,,,,,,,,,,,,m,108,,,,,,,,,1,,None
100,100,112,,,,None,1,m,0,16,,,,,,,,,,,,,m,124,,,,,,,,,1,,None
100,100,113,,,,None,1,m,0,17,,,,,,,,,,,,,m,120,,,,,,,,,1,,None
100,100,114,,,,None,1,m,0,18,,,,,,,,,,,,,m,128,,,,,,,,,1,,None
100,100,115,,,,None,1,m,0,19,,,,,,,,,,,,,m,146,,,,,,,,,1,,None
100,100,116,,,,None,1,m,0,20,,,,,,,,,,,,,m,123,,,,,,,,,1,,None
100,100,116,,,,None,1,m,0,21,,,,,,,,,,,,,m,120,,,,,,,,,1,,None
100,100,117,,,,None,1,m,0,22,,,,,,,,,,,,,m,150,,,,,,,,,1,,None
100,100,117,,,,None,1,m,0,23,,,,,,,,,,,,,m,116,,,,,,,,,1,,None
100,100,117,,,,None,1,m,0,24,,,,,,,,,,,,,m,111,,,,,,,,,1,,None
100,100,118,,,,None,1,m,0,25,,,,,,,,,,,,,m,144,,,,,,,,,1,,None
100,100,118,,,,None,1,m,0,26,,,,,,,,,,,,,m,127,,,,,,,,,1,,None
100,100,118,,,,None,1,m,0,27,,,,,,,,,,,,,m,117,,,,,,,,,1,,None
100,100,118,,,,None,1,m,0,28,,,,,,,,,,,,,m,118,,,,,,,,,1,,None
100,100,119,,,,None,1,m,0,29,,,,,,,,,,,,,m,136,,,,,,,,,1,,None
100,100,119,,,,None,1,m,0,30,,,,,,,,,,,,,m,123,,,,,,,,,1,,None
100,100,119,,,,None,1,m,0,31,,,,,,,,,,,,,m,126,,,,,,,,,1,,None
100,100,119,,,,None,1,m,0,32,,,,,,,,,,,,,m,125,,,,,,,,,1,,None
100,100,120,,,,None,1,m,0,33,,,,,,,,,,,,,m,130,,,,,,,,,1,,None
100,100,120,,,,None,1,m,0,34,,,,,,,,,,,,,m,118,,,,,,,,,1,,None
100,100,120,,,,None,1,m,0,35,,,,,,,,,,,,,m,144,,,,,,,,,1,,None
100,100,121,,,,None,1,m,0,36,,,,,,,,,,,,,m,144,,,,,,,,,1,,None
100,100,121,,,,None,1,m,0,37,,,,,,,,,,,,,m,138,,,,,,,,,1,,None
100,100,122,,,,None,1,m,0,38,,,,,,,,,,,,,m,149,,,,,,,,,1,,None
100,100,123,,,,None,1,m,0,39,,,,,,,,,,,,,m,140,,,,,,,,,1,,None
100,100,123,,,,None,1,m,0,40,,,,,,,,,,,,,m,152,,,,,,,,,1,,None
100,100,123,,,,None,1,m,0,41,,,,,,,,,,,,,m,123,,,,,,,,,1,,None
100,100,124,,,,None,1,m,0,42,,,,,,,,,,,,,m,143,,,,,,,,,1,,None
100,100,124,,,,None,1,m,0,43,,,,,,,,,,,,,m,129,,,,,,,,,1,,None
100,100,124,,,,None,1,m,0,44,,,,,,,,,,,,,m,116,,,,,,,,,1,,None
100,100,124,,,,None,1,m,0,45,,,,,,,,,,,,,m,131,,,,,,,,,1,,None
100,100,124,,,,None,1,m,0,46,,,,,,,,,,,,,m,149,,,,,,,,,1,,None
100,100,125,,,,None,1,m,0,47,,,,,,,,,,,,,m,145,,,,,,,,,1,,None
100,100,125,,,,None,1,m,0,48,,,,,,,,,,,,,m,129,,,,,,,,,1,,None
100,100,126,,,,None,1,m,0,49,,,,,,,,,,,,,m,191,,,,,,,,,1,,None
100,100,435,,,,None,1,m,0,0,,,,,,,,,,,,,m,435,,,,,,,,,0,,None
100,100,263,,,,None,1,m,0,1,,,,,,,,,,,,,m,90,,,,,,,,,0,,None
100,100,220,,,,None,1,m,0,2,,,,,,,,,,,,,m,135,,,,,,,,,0,,None
100,100,195,,,,None,1,m,0,3,,,,,,,,,,,,,m,120,,,,,,,,,0,,None
100,100,176,,,,None,1,m,0,4,,,,,,,,,,,,,m,102,,,,,,,,,0,,None
100,100,163,,,,None,1,m,0,5,,,,,,,,,,,,,m,96,,,,,,,,,0,,None
100,100,149,,,,None,1,m,0,6,,,,,,,,,,,,,m,68,,,,,,,,,0,,None
100,100,143,,,,None,1,m,0,7,,,,,,,,,,,,,m,100,,,,,,,,,0,,None
100,100,139,,,,None,1,m,0,8,,,,,,,,,,,,,m,103,,,,,,,,,0,,None
100,100,137,,,,None,1,m,0,9,,,,,,,,,,,,,m,120,,,,,,,,,0,,None
100,100,140,,,,None,1,m,0,10,,,,,,,,,,,,,m,169,,,,,,,,,0,,None
100,100,139,,,,None,1,m,0,11,,,,,,,,,,,,,m,125,,,,,,,,,0,,None
100,100,138,,,,None,1,m,0,12,,,,,,,,,,,,,m,136,,,,,,,,,0,,None
100,100,138,,,,None,1,m,0,13,,,,,,,,,,,,,m,127,,,,,,,,,0,,None
100,100,138,,,,None,1,m,0,14,,,,,,,,,,,,,m,137,,,,,,,,,0,,None
100,100,136,,,,None,1,m,0,15,,,,,,,,,,,,,m,119,,,,,,,,,0,,None
100,100,136,,,,None,1,m,0,16,,,,,,,,,,,,,m,127,,,,,,,,,0,,None
100,100,136,,,,None,1,m,0,17,,,,,,,,,,,,,m,143,,,,,,,,,0,,None
100,100,136,,,,None,1,m,0,18,,,,,,,,,,,,,m,128,,,,,,,,,0,,None
100,100,135,,,,None,1,m,0,19,,,,,,,,,,,,,m,123,,,,,,,,,0,,None
100,100,136,,,,None,1,m,0,20,,,,,,,,,,,,,m,144,,,,,,,,,0,,None
100,100,135,,,,None,1,m,0,21,,,,,,,,,,,,,m,123,,,,,,,,,0,,None
100,100,135,,,,None,1,m,0,22,,,,,,,,,,,,,m,134,,,,,,,,,0,,None
100,100,135,,,,None,1,m,0,23,,,,,,,,,,,,,m,127,,,,,,,,,0,,None
100,100,135,,,,None,1,m,0,24,,,,,,,,,,,,,m,136,,,,,,,,,0,,None
100,100,135,,,,None,1,m,0,25,,,,,,,,,,,,,m,130,,,,,,,,,0,,None
100,100,135,,,,None,1,m,0,26,,,,,,,,,,,,,m,135,,,,,,,,,0,,None
100,100,135,,,,None,1,m,0,27,,,,,,,,,,,,,m,135,,,,,,,,,0,,None
100,100,135,,,,None,1,m,0,28,,,,,,,,,,,,,m,153,,,,,,,,,0,,None
100,100,135,,,,None,1,m,0,29,,,,,,,,,,,,,m,141,,,,,,,,,0,,None
100,100,135,,,,None,1,m,0,30,,,,,,,,,,,,,m,128,,,,,,,,,0,,None
100,100,135,,,,None,1,m,0,31,,,,,,,,,,,,,m,143,,,,,,,,,0,,None
100,100,136,,,,None,1,m,0,32,,,,,,,,,,,,,m,142,,,,,,,,,0,,None
100,100,136,,,,None,1,m,0,33,,,,,,,,,,,,,m,138,,,,,,,,,0,,None
100,100,136,,,,None,1,m,0,34,,,,,,,,,,,,,m,155,,,,,,,,,0,,None
100,100,136,,,,None,1,m,0,35,,,,,,,,,,,,,m,141,,,,,,,,,0,,None
100,100,137,,,,None,1,m,0,36,,,,,,,,,,,,,m,149,,,,,,,,,0,,None
100,100,137,,,,None,1,m,0,37,,,,,,,,,,,,,m,135,,,,,,,,,0,,None
100,100,137,,,,None,1,m,0,38,,,,,,,,,,,,,m,144,,,,,,,,,0,,None
100,100,137,,,,None,1,m,0,39,,,,,,,,,,,,,m,143,,,,,,,,,0,,None
100,100,137,,,,None,1,m,0,40,,,,,,,,,,,,,m,124,,,,,,,,,0,,None
100,100,137,,,,None,1,m,0,41,,,,,,,,,,,,,m,158,,,,,,,,,0,,None
100,100,138,,,,None,1,m,0,42,,,,,,,,,,,,,m,153,,,,,,,,,0,,None
100,100,137,,,,None,1,m,0,43,,,,,,,,,,,,,m,110,,,,,,,,,0,,None
100,100,137,,,,None,1,m,0,44,,,,,,,,,,,,,m,160,,,,,,,,,0,,None
100,100,137,,,,None,1,m,0,45,,,,,,,,,,,,,m,135,,,,,,,,,0,,None
100,100,137,,,,None,1,m,0,46,,,,,,,,,,,,,m,134,,,,,,,,,0,,None
100,100,137,,,,None,1,m,0,47,,,,,,,,,,,,,m,131,,,,,,,,,0,,None
100,100,137,,,,None,1,m,0,48,,,,,,,,,,,,,m,127,,,,,,,,,0,,None
100,100,138,,,,None,1,m,0,49,,,,,,,,,,,,,m,176,,,,,,,,,0,,None
100,100,89,,,,None,1,m,0,0,,,,,,,,,,,,,m,89,,,,,,,,,1,,None
100,100,100,,,,None,1,m,0,1,,,,,,,,,,,,,m,110,,,,,,,,,1,,None
100,100,95,,,,None,1,m,0,2,,,,,,,,,,,,,m,87,,,,,,,,,1,,None
100,100,106,,,,None,1,m,0,3,,,,,,,,,,,,,m,136,,,,,,,,,1,,None
100,100,109,,,,None,1,m,0,4,,,,,,,,,,,,,m,125,,,,,,,,,1,,None
100,100,113,,,,None,1,m,0,5,,,,,,,,,,,,,m,132,,,,,,,,,1,,None
100,100,115,,,,None,1,m,0,6,,,,,,,,,,,,,m,129,,,,,,,,,1,,None
100,100,115,,,,None,1,m,0,7,,,,,,,,,,,,,m,108,,,,,,,,,1,,None
100,100,109,,,,None,1,m,0,8,,,,,,,,,,,,,m,67,,,,,,,,,1,,None
100,100,112,,,,None,1,m,0,9,,,,,,,,,,,,,m,132,,,,,,,,,1,,None
100,100,112,,,,None,1,m,0,10,,,,,,,,,,,,,m,115,,,,,,,,,1,,None
100,100,113,,,,None,1,m,0,11,,,,,,,,,,,,,m,125,,,,,,,,,1,,None
100,100,116,,,,None,1,m,0,12,,,,,,,,,,,,,m,153,,,,,,,,,1,,None
100,100,117,,,,None,1,m,0,13,,,,,,,,,,,,,m,130,,,,,,,,,1,,None
100,100,118,,,,None,1,m,0,14,,,,,,,,,,,,,m,131,,,,,,,,,1,,None
100,100,118,,,,None,1,m,0,15,,,,,,,,,,,,,m,114,,,,,,,,,1,,None
100,100,117,,,,None,1,m,0,16,,,,,,,,,,,,,m,105,,,,,,,,,1,,None
100,100,117,,,,None,1,m,0,17,,,,,,,,,,,,,m,125,,,,,,,,,1,,None
100,100,118,,,,None,1,m,0,18,,,,,,,,,,,,,m,131,,,,,,,,,1,,None
100,100,119,,,,None,1,m,0,19,,,,,,,,,,,,,m,136,,,,,,,,,1,,None
100,100,119,,,,None,1,m,0,20,,,,,,,,,,,,,m,110,,,,,,,,,1,,None
100,100,120,,,,None,1,m,0,21,,,,,,,,,,,,,m,150,,,,,,,,,1,,None
100,100,122,,,,None,1,m,0,22,,,,,,,,,,,,,m,159,,,,,,,,,1,,None
100,100,122,,,,None,1,m,0,23,,,,,,,,,,,,,m,128,,,,,,,,,1,,None
100,100,123,,,,None,1,m,0,24,,,,,,,,,,,,,m,138,,,,,,,,,1,,None
100,100,124,,,,None,1,m,0,25,,,,,,,,,,,,,m,146,,,,,,,,,1,,None
100,100,124,,,,None,1,m,0,26,,,,,,,,,,,,,m,132,,,,,,,,,1,,None
100,100,124,,,,None,1,m,0,27,,,,,,,,,,,,,m,127,,,,,,,,,1,,None
100,100,125,,,,None,1,m,0,28,,,,,,,,,,,,,m,142,,,,,,,,,1,,None
100,100,125,,,,None,1,m,0,29,,,,,,,,,,,,,m,127,,,,,,,,,1,,None
100,100,125,,,,None,1,m,0,30,,,,,,,,,,,,,m,122,,,,,,,,,1,,None
100,100,125,,,,None,1,m,0,31,,,,,,,,,,,,,m,125,,,,,,,,,1,,None
100,100,125,,,,None,1,m,0,32,,,,,,,,,,,,,m,146,,,,,,,,,1,,None
100,100,126,,,,None,1,m,0,33,,,,,,,,,,,,,m,136,,,,,,,,,1,,None
100,100,126,,,,None,1,m,0,34,,,,,,,,,,,,,m,147,,,,,,,,,1,,None
100,100,126,,,,None,1,m,0,35,,,,,,,,,,,,,m,124,,,,,,,,,1,,None
100,100,126,,,,None,1,m,0,36,,,,,,,,,,,,,m,110,,,,,,,,,1,,None
100,100,126,,,,None,1,m,0,37,,,,,,,,,,,,,m,120,,,,,,,,,1,,None
100,100,126,,,,None,1,m,0,38,,,,,,,,,,,,,m,155,,,,,,,,,1,,None
100,100,127,,,,None,1,m,0,39,,,,,,,,,,,,,m,139,,,,,,,,,1,,None
100,100,127,,,,None,1,m,0,40,,,,,,,,,,,,,m,152,,,,,,,,,1,,None
100,100,127,,,,None,1,m,0,41,,,,,,,,,,,,,m,136,,,,,,,,,1,,None
100,100,127,,,,None,1,m,0,42,,,,,,,,,,,,,m,131,,,,,,,,,1,,None
100,100,128,,,,None,1,m,0,43,,,,,,,,,,,,,m,133,,,,,,,,,1,,None
100,100,128,,,,None,1,m,0,44,,,,,,,,,,,,,m,135,,,,,,,,,1,,None
100,100,128,,,,None,1,m,0,45,,,,,,,,,,,,,m,145,,,,,,,,,1,,None
100,100,128,,,,None,1,m,0,46,,,,,,,,,,,,,m,140,,,,,,,,,1,,None
100,100,129,,,,None,1,m,0,47,,,,,,,,,,,,,m,158,,,,,,,,,1,,None
100,100,129,,,,None,1,m,0,48,,,,,,,,,,,,,m,150,,,,,,,,,1,,None
100,100,130,,,,None,1,m,0,49,,,,,,,,,,,,,m,139,,,,,,,,,1,,None
100,100,79,,,,None,1,m,0,0,,,,,,,,,,,,,m,79,,,,,,,,,1,,None
100,100,112,,,,None,1,m,0,1,,,,,,,,,,,,,m,144,,,,,,,,,1,,None
100,100,120,,,,None,1,m,0,2,,,,,,,,,,,,,m,137,,,,,,,,,1,,None
100,100,115,,,,None,1,m,0,3,,,,,,,,,,,,,m,101,,,,,,,,,1,,None
100,100,111,,,,None,1,m,0,4,,,,,,,,,,,,,m,92,,,,,,,,,1,,None
100,100,111,,,,None,1,m,0,5,,,,,,,,,,,,,m,111,,,,,,,,,1,,None
100,100,114,,,,None,1,m,0,6,,,,,,,,,,,,,m,137,,,,,,,,,1,,None
100,100,115,,,,None,1,m,0,7,,,,,,,,,,,,,m,115,,,,,,,,,1,,None
100,100,114,,,,None,1,m,0,8,,,,,,,,,,,,,m,114,,,,,,,,,1,,None
100,100,120,,,,None,1,m,0,9,,,,,,,,,,,,,m,169,,,,,,,,,1,,None
100,100,122,,,,None,1,m,0,10,,,,,,,,,,,,,m,146,,,,,,,,,1,,None
100,100,123,,,,None,1,m,0,11,,,,,,,,,,,,,m,131,,,,,,,,,1,,None
100,100,124,,,,None,1,m,0,12,,,,,,,,,,,,,m,131,,,,,,,,,1,,None
100,100,124,,,,None,1,m,0,13,,,,,,,,,,,,,m,127,,,,,,,,,1,,None
100,100,124,,,,None,1,m,0,14,,,,,,,,,,,,,m,125,,,,,,,,,1,,None
100,100,124,,,,None,1,m,0,15,,,,,,,,,,,,,m,130,,,,,,,,,1,,None
100,100,124,,,,None,1,m,0,16,,,,,,,,,,,,,m,127,,,,,,,,,1,,None
100,100,125,,,,None,1,m,0,17,,,,,,,,,,,,,m,138,,,,,,,,,1,,None
100,100,125,,,,None,1,m,0,18,,,,,,,,,,,,,m,121,,,,,,,,,1,,None
100,100,125,,,,None,1,m,0,19,,,,,,,,,,,,,m,133,,,,,,,,,1,,None
100,100,126,,,,None,1,m,0,20,,,,,,,,,,,,,m,135,,,,,,,,,1,,None
100,100,126,,,,None,1,m,0,21,,,,,,,,,,,,,m,128,,,,,,,,,1,,None
100,100,126,,,,None,1,m,0,22,,,,,,,,,,,,,m,130,,,,,,,,,1,,None
100,100,126,,,,None,1,m,0,23,,,,,,,,,,,,,m,127,,,,,,,,,1,,None
100,100,126,,,,None,1,m,0,24,,,,,,,,,,,,,m,128,,,,,,,,,1,,None
100,100,128,,,,None,1,m,0,25,,,,,,,,,,,,,m,161,,,,,,,,,1,,None
100,100,128,,,,None,1,m,0,26,,,,,,,,,,,,,m,129,,,,,,,,,1,,None
100,100,128,,,,None,1,m,0,27,,,,,,,,,,,,,m,130,,,,,,,,,1,,None
100,100,128,,,,None,1,m,0,28,,,,,,,,,,,,,m,144,,,,,,,,,1,,None
100,100,128,,,,None,1,m,0,29,,,,,,,,,,,,,m,133,,,,,,,,,1,,None
100,100,129,,,,None,1,m,0,30,,,,,,,,,,,,,m,141,,,,,,,,,1,,None
100,100,129,,,,None,1,m,0,31,,,,,,,,,,,,,m,134,,,,,,,,,1,,None
100,100,129,,,,None,1,m,0,32,,,,,,,,,,,,,m,140,,,,,,,,,1,,None
100,100,129,,,,None,1,m,0,33,,,,,,,,,,,,,m,130,,,,,,,,,1,,None
100,100,130,,,,None,1,m,0,34,,,,,,,,,,,,,m,138,,,,,,,,,1,,None
100,100,130,,,,None,1,m,0,35,,,,,,,,,,,,,m,138,,,,,,,,,1,,None
100,100,131,,,,None,1,m,0,36,,,,,,,,,,,,,m,156,,,,,,,,,1,,None
100,100,131,,,,None,1,m,0,37,,,,,,,,,,,,,m,142,,,,,,,,,1,,None
100,100,131,,,,None,1,m,0,38,,,,,,,,,,,,,m,136,,,,,,,,,1,,None
100,100,131,,,,None,1,m,0,39,,,,,,,,,,,,,m,134,,,,,,,,,1,,None
100,100,131,,,,None,1,m,0,40,,,,,,,,,,,,,m,144,,,,,,,,,1,,None
100,100,132,,,,None,1,m,0,41,,,,,,,,,,,,,m,146,,,,,,,,,1,,None
100,100,131,,,,None,1,m,0,42,,,,,,,,,,,,,m,117,,,,,,,,,1,,None
100,100,131,,,,None,1,m,0,43,,,,,,,,,,,,,m,130,,,,,,,,,1,,None
100,100,132,,,,None,1,m,0,44,,,,,,,,,,,,,m,166,,,,,,,,,1,,None
100,100,132,,,,None,1,m,0,45,,,,,,,,,,,,,m,138,,,,,,,,,1,,None
100,100,133,,,,None,1,m,0,46,,,,,,,,,,,,,m,153,,,,,,,,,1,,None
100,100,133,,,,None,1,m,0,47,,,,,,,,,,,,,m,138,,,,,,,,,1,,None
100,100,133,,,,None,1,m,0,48,,,,,,,,,,,,,m,138,,,,,,,,,1,,None
100,100,214,,,,None,1,m,0,49,,,,,,,,,,,,,m,4181,,,,,,,,,1,,None
100,100,74,,,,None,1,m,0,0,,,,,,,,,,,,,m,74,,,,,,,,,0,,None
100,100,80,,,,None,1,m,0,1,,,,,,,,,,,,,m,86,,,,,,,,,0,,None
100,100,104,,,,None,1,m,0,2,,,,,,,,,,,,,m,151,,,,,,,,,0,,None
100,100,104,,,,None,1,m,0,3,,,,,,,,,,,,,m,104,,,,,,,,,0,,None
100,100,107,,,,None,1,m,0,4,,,,,,,,,,,,,m,120,,,,,,,,,0,,None
100,100,107,,,,None,1,m,0,5,,,,,,,,,,,,,m,106,,,,,,,,,0,,None
100,100,107,,,,None,1,m,0,6,,,,,,,,,,,,,m,107,,,,,,,,,0,,None
100,100,107,,,,None,1,m,0,7,,,,,,,,,,,,,m,107,,,,,,,,,0,,None
100,100,107,,,,None,1,m,0,8,,,,,,,,,,,,,m,105,,,,,,,,,0,,None
100,100,108,,,,None,1,m,0,9,,,,,,,,,,,,,m,116,,,,,,,,,0,,None
100,100,105,,,,None,1,m,0,10,,,,,,,,,,,,,m,84,,,,,,,,,0,,None
100,100,107,,,,None,1,m,0,11,,,,,,,,,,,,,m,124,,,,,,,,,0,,None
100,100,108,,,,None,1,m,0,12,,,,,,,,,,,,,m,125,,,,,,,,,0,,None
100,100,110,,,,None,1,m,0,13,,,,,,,,,,,,,m,125,,,,,,,,,0,,None
100,100,109,,,,None,1,m,0,14,,,,,,,,,,,,,m,95,,,,,,,,,0,,None
100,100,112,,,,None,1,m,0,15,,,,,,,,,,,,,m,157,,,,,,,,,0,,None
100,100,113,,,,None,1,m,0,16,,,,,,,,,,,,,m,128,,,,,,,,,0,,None
100,100,114,,,,None,1,m,0,17,,,,,,,,,,,,,m,141,,,,,,,,,0,,None
100,100,115,,,,None,1,m,0,18,,,,,,,,,,,,,m,132,,,,,,,,,0,,None
100,100,116,,,,None,1,m,0,19,,,,,,,,,,,,,m,129,,,,,,,,,0,,None
100,100,115,,,,None,1,m,0,20,,,,,,,,,,,,,m,102,,,,,,,,,0,,None
100,100,115,,,,None,1,m,0,21,,,,,,,,,,,,,m,109,,,,,,,,,0,,None
100,100,115,,,,None,1,m,0,22,,,,,,,,,,,,,m,122,,,,,,,,,0,,None
100,100,116,,,,None,1,m,0,23,,,,,,,,,,,,,m,146,,,,,,,,,0,,None
100,100,117,,,,None,1,m,0,24,,,,,,,,,,,,,m,127,,,,,,,,,0,,None
100,100,117,,,,None,1,m,0,25,,,,,,,,,,,,,m,126,,,,,,,,,0,,None
100,100,118,,,,None,1,m,0,26,,,,,,,,,,,,,m,150,,,,,,,,,0,,None
100,100,118,,,,None,1,m,0,27,,,,,,,,,,,,,m,107,,,,,,,,,0,,None
100,100,118,,,,None,1,m,0,28,,,,,,,,,,,,,m,131,,,,,,,,,0,,None
100,100,118,,,,None,1,m,0,29,,,,,,,,,,,,,m,106,,,,,,,,,0,,None
100,100,120,,,,None,1,m,0,30,,,,,,,,,,,,,m,167,,,,,,,,,0,,None
100,100,119,,,,None,1,m,0,31,,,,,,,,,,,,,m,114,,,,,,,,,0,,None
100,100,120,,,,None,1,m,0,32,,,,,,,,,,,,,m,122,,,,,,,,,0,,None
100,100,120,,,,None,1,m,0,33,,,,,,,,,,,,,m,128,,,,,,,,,0,,None
100,100,121,,,,None,1,m,0,34,,,,,,,,,,,,,m,161,,,,,,,,,0,,None
100,100,121,,,,None,1,m,0,35,,,,,,,,,,,,,m,106,,,,,,,,,0,,None
100,100,122,,,,None,1,m,0,36,,,,,,,,,,,,,m,159,,,,,,,,,0,,None
100,100,122,,,,None,1,m,0,37,,,,,,,,,,,,,m,124,,,,,,,,,0,,None
100,100,122,,,,None,1,m,0,38,,,,,,,,,,,,,m,150,,,,,,,,,0,,None
100,100,123,,,,None,1,m,0,39,,,,,,,,,,,,,m,133,,,,,,,,,0,,None
100,100,123,,,,None,1,m,0,40,,,,,,,,,,,,,m,129,,,,,,,,,0,,None
100,100,123,,,,None,1,m,0,41,,,,,,,,,,,,,m,148,,,,,,,,,0,,None
100,100,123,,,,None,1,m,0,42,,,,,,,,,,,,,m,120,,,,,,,,,0,,None
100,100,123,,,,None,1,m,0,43,,,,,,,,,,,,,m,127,,,,,,,,,0,,None
100,100,124,,,,None,1,m,0,44,,,,,,,,,,,,,m,132,,,,,,,,,0,,None
100,100,124,,,,None,1,m,0,45,,,,,,,,,,,,,m,135,,,,,,,,,0,,None
100,100,124,,,,None,1,m,0,46,,,,,,,,,,,,,m,126,,,,,,,,,0,,None
100,100,124,,,,None,1,m,0,47,,,,,,,,,,,,,m,105,,,,,,,,,0,,None
100,100,124,,,,None,1,m,0,48,,,,,,,,,,,,,m,140,,,,,,,,,0,,None
100,100,124,,,,None,1,m,0,49,,,,,,,,,,,,,m,133,,,,,,,,,0,,None
100,100,78,,,,None,1,m,0,0,,,,,,,,,,,,,m,78,,,,,,,,,1,,None
100,100,100,,,,None,1,m,0,1,,,,,,,,,,,,,m,122,,,,,,,,,1,,None
100,100,106,,,,None,1,m,0,2,,,,,,,,,,,,,m,118,,,,,,,,,1,,None
100,100,107,,,,None,1,m,0,3,,,,,,,,,,,,,m,111,,,,,,,,,1,,None
100,100,105,,,,None,1,m,0,4,,,,,,,,,,,,,m,96,,,,,,,,,1,,None
100,100,102,,,,None,1,m,0,5,,,,,,,,,,,,,m,87,,,,,,,,,1,,None
100,100,105,,,,None,1,m,0,6,,,,,,,,,,,,,m,123,,,,,,,,,1,,None
100,100,108,,,,None,1,m,0,7,,,,,,,,,,,,,m,129,,,,,,,,,1,,None
100,100,109,,,,None,1,m,0,8,,,,,,,,,,,,,m,116,,,,,,,,,1,,None
100,100,110,,,,None,1,m,0,9,,,,,,,,,,,,,m,123,,,,,,,,,1,,None
100,100,109,,,,None,1,m,0,10,,,,,,,,,,,,,m,98,,,,,,,,,1,,None
100,100,108,,,,None,1,m,0,11,,,,,,,,,,,,,m,90,,,,,,,,,1,,None
100,100,119,,,,None,1,m,0,12,,,,,,,,,,,,,m,252,,,,,,,,,1,,None
100,100,121,,,,None,1,m,0,13,,,,,,,,,,,,,m,154,,,,,,,,,1,,None
100,100,125,,,,None,1,m,0,14,,,,,,,,,,,,,m,172,,,,,,,,,1,,None
100,100,126,,,,None,1,m,0,15,,,,,,,,,,,,,m,139,,,,,,,,,1,,None
100,100,127,,,,None,1,m,0,16,,,,,,,,,,,,,m,149,,,,,,,,,1,,None
100,100,126,,,,None,1,m,0,17,,,,,,,,,,,,,m,117,,,,,,,,,1,,None
100,100,125,,,,None,1,m,0,18,,,,,,,,,,,,,m,110,,,,,,,,,1,,None
100,100,126,,,,None,1,m,0,19,,,,,,,,,,,,,m,130,,,,,,,,,1,,None
100,100,126,,,,None,1,m,0,20,,,,,,,,,,,,,m,137,,,,,,,,,1,,None
100,100,126,,,,None,1,m,0,21,,,,,,,,,,,,,m,119,,,,,,,,,1,,None
100,100,126,,,,None,1,m,0,22,,,,,,,,,,,,,m,117,,,,,,,,,1,,None
100,100,126,,,,None,1,m,0,23,,,,,,,,,,,,,m,139,,,,,,,,,1,,None
100,100,126,,,,None,1,m,0,24,,,,,,,,,,,,,m,125,,,,,,,,,1,,None
100,100,126,,,,None,1,m,0,25,,,,,,,,,,,,,m,133,,,,,,,,,1,,None
100,100,126,,,,None,1,m,0,26,,,,,,,,,,,,,m,120,,,,,,,,,1,,None
100,100,127,,,,None,1,m,0,27,,,,,,,,,,,,,m,143,,,,,,,,,1,,None
100,100,126,,,,None,1,m,0,28,,,,,,,,,,,,,m,114,,,,,,,,,1,,None
100,100,126,,,,None,1,m,0,29,,,,,,,,,,,,,m,114,,,,,,,,,1,,None
100,100,125,,,,None,1,m,0,30,,,,,,,,,,,,,m,107,,,,,,,,,1,,None
100,100,125,,,,None,1,m,0,31,,,,,,,,,,,,,m,120,,,,,,,,,1,,None
100,100,126,,,,None,1,m,0,32,,,,,,,,,,,,,m,147,,,,,,,,,1,,None
100,100,127,,,,None,1,m,0,33,,,,,,,,,,,,,m,154,,,,,,,,,1,,None
100,100,127,,,,None,1,m,0,34,,,,,,,,,,,,,m,143,,,,,,,,,1,,None
100,100,127,,,,None,1,m,0,35,,,,,,,,,,,,,m,142,,,,,,,,,1,,None
100,100,127,,,,None,1,m,0,36,,,,,,,,,,,,,m,124,,,,,,,,,1,,None
100,100,127,,,,None,1,m,0,37,,,,,,,,,,,,,m,112,,,,,,,,,1,,None
100,100,128,,,,None,1,m,0,38,,,,,,,,,,,,,m,158,,,,,,,,,1,,None
100,100,128,,,,None,1,m,0,39,,,,,,,,,,,,,m,131,,,,,,,,,1,,None
100,100,128,,,,None,1,m,0,40,,,,,,,,,,,,,m,127,,,,,,,,,1,,None
100,100,128,,,,None,1,m,0,41,,,,,,,,,,,,,m,117,,,,,,,,,1,,None
100,100,127,,,,None,1,m,0,42,,,,,,,,,,,,,m,123,,,,,,,,,1,,None
100,100,128,,,,None,1,m,0,43,,,,,,,,,,,,,m,163,,,,,,,,,1,,None
100,100,128,,,,None,1,m,0,44,,,,,,,,,,,,,m,137,,,,,,,,,1,,None
100,100,129,,,,None,1,m,0,45,,,,,,,,,,,,,m,152,,,,,,,,,1,,None
100,100,129,,,,None,1,m,0,46,,,,,,,,,,,,,m,133,,,,,,,,,1,,None
100,100,129,,,,None,1,m,0,47,,,,,,,,,,,,,m,138,,,,,,,,,1,,None
100,100,129,,,,None,1,m,0,48,,,,,,,,,,,,,m,137,,,,,,,,,1,,None
100,100,130,,,,None,1,m,0,49,,,,,,,,,,,,,m,145,,,,,,,,,1,,None
100,100,61,,,,None,1,m,0,0,,,,,,,,,,,,,m,61,,,,,,,,,0,,None
100,100,80,,,,None,1,m,0,1,,,,,,,,,,,,,m,99,,,,,,,,,0,,None
100,100,89,,,,None,1,m,0,2,,,,,,,,,,,,,m,108,,,,,,,,,0,,None
100,100,96,,,,None,1,m,0,3,,,,,,,,,,,,,m,114,,,,,,,,,0,,None
100,100,97,,,,None,1,m,0,4,,,,,,,,,,,,,m,103,,,,,,,,,0,,None
100,100,98,,,,None,1,m,0,5,,,,,,,,,,,,,m,101,,,,,,,,,0,,None
100,100,99,,,,None,1,m,0,6,,,,,,,,,,,,,m,105,,,,,,,,,0,,None
100,100,100,,,,None,1,m,0,7,,,,,,,,,,,,,m,112,,,,,,,,,0,,None
100,100,101,,,,None,1,m,0,8,,,,,,,,,,,,,m,108,,,,,,,,,0,,None
100,100,104,,,,None,1,m,0,9,,,,,,,,,,,,,m,127,,,,,,,,,0,,None
100,100,119,,,,None,1,m,0,10,,,,,,,,,,,,,m,268,,,,,,,,,0,,None
100,100,120,,,,None,1,m,0,11,,,,,,,,,,,,,m,134,,,,,,,,,0,,None
100,100,122,,,,None,1,m,0,12,,,,,,,,,,,,,m,140,,,,,,,,,0,,None
100,100,122,,,,None,1,m,0,13,,,,,,,,,,,,,m,129,,,,,,,,,0,,None
100,100,122,,,,None,1,m,0,14,,,,,,,,,,,,,m,119,,,,,,,,,0,,None
100,100,121,,,,None,1,m,0,15,,,,,,,,,,,,,m,100,,,,,,,,,0,,None
100,100,121,,,,None,1,m,0,16,,,,,,,,,,,,,m,122,,,,,,,,,0,,None
100,100,120,,,,None,1,m,0,17,,,,,,,,,,,,,m,107,,,,,,,,,0,,None
100,100,120,,,,None,1,m,0,18,,,,,,,,,,,,,m,115,,,,,,,,,0,,None
100,100,120,,,,None,1,m,0,19,,,,,,,,,,,,,m,120,,,,,,,,,0,,None
100,100,120,,,,None,1,m,0,20,,,,,,,,,,,,,m,121,,,,,,,,,0,,None
100,100,119,,,,None,1,m,0,21,,,,,,,,,,,,,m,111,,,,,,,,,0,,None
100,100,120,,,,None,1,m,0,22,,,,,,,,,,,,,m,133,,,,,,,,,0,,None
100,100,120,,,,None,1,m,0,23,,,,,,,,,,,,,m,128,,,,,,,,,0,,None
100,100,120,,,,None,1,m,0,24,,,,,,,,,,,,,m,125,,,,,,,,,0,,None
100,100,120,,,,None,1,m,0,25,,,,,,,,,,,,,m,107,,,,,,,,,0,,None
100,100,120,,,,None,1,m,0,26,,,,,,,,,,,,,m,124,,,,,,,,,0,,None
100,100,120,,,,None,1,m,0,27,,,,,,,,,,,,,m,121,,,,,,,,,0,,None
100,100,120,,,,None,1,m,0,28,,,,,,,,,,,,,m,111,,,,,,,,,0,,None
100,100,119,,,,None,1,m,0,29,,,,,,,,,,,,,m,104,,,,,,,,,0,,None
100,100,119,,,,None,1,m,0,30,,,,,,,,,,,,,m,122,,,,,,,,,0,,None
100,100,120,,,,None,1,m,0,31,,,,,,,,,,,,,m,129,,,,,,,,,0,,None
100,100,120,,,,None,1,m,0,32,,,,,,,,,,,,,m,134,,,,,,,,,0,,None
100,100,120,,,,None,1,m,0,33,,,,,,,,,,,,,m,116,,,,,,,,,0,,None
100,100,121,,,,None,1,m,0,34,,,,,,,,,,,,,m,147,,,,,,,,,0,,None
100,100,121,,,,None,1,m,0,35,,,,,,,,,,,,,m,129,,,,,,,,,0,,None
100,100,121,,,,None,1,m,0,36,,,,,,,,,,,,,m,136,,,,,,,,,0,,None
100,100,121,,,,None,1,m,0,37,,,,,,,,,,,,,m,117,,,,,,,,,0,,None
100,100,122,,,,None,1,m,0,38,,,,,,,,,,,,,m,132,,,,,,,,,0,,None
100,100,121,,,,None,1,m,0,39,,,,,,,,,,,,,m,118,,,,,,,,,0,,None
100,100,122,,,,None,1,m,0,40,,,,,,,,,,,,,m,128,,,,,,,,,0,,None
100,100,122,,,,None,1,m,0,41,,,,,,,,,,,,,m,128,,,,,,,,,0,,None
100,100,121,,,,None,1,m,0,42,,,,,,,,,,,,,m,111,,,,,,,,,0,,None
100,100,122,,,,None,1,m,0,43,,,,,,,,,,,,,m,123,,,,,,,,,0,,None
100,100,122,,,,None,1,m,0,44,,,,,,,,,,,,,m,126,,,,,,,,,0,,None
100,100,122,,,,None,1,m,0,45,,,,,,,,,,,,,m,131,,,,,,,,,0,,None
100,100,122,,,,None,1,m,0,46,,,,,,,,,,,,,m,137,,,,,,,,,0,,None
100,100,122,,,,None,1,m,0,47,,,,,,,,,,,,,m,138,,,,,,,,,0,,None
100,100,123,,,,None,1,m,0,48,,,,,,,,,,,,,m,128,,,,,,,,,0,,None
100,100,122,,,,None,1,m,0,49,,,,,,,,,,,,,m,112,,,,,,,,,0,,None
0,0,5010,,,,None,0,m,0,0,,,,,,,,,,,,,None,5010,,,,,,,,,1,,None
0,0,5008,,,,None,0,m,0,1,,,,,,,,,,,,,None,5006,,,,,,,,,1,,None
0,0,5767,,,,None,0,m,0,2,,,,,,,,,,,,,None,7285,,,,,,,,,1,,None
0,0,5946,,,,None,0,m,0,3,,,,,,,,,,,,,None,6482,,,,,,,,,1,,None
0,0,5759,,,,None,0,m,0,4,,,,,,,,,,,,,None,5014,,,,,,,,,1,,None
0,0,5635,,,,None,0,m,0,5,,,,,,,,,,,,,None,5010,,,,,,,,,1,,None
0,0,6221,,,,None,0,m,0,6,,,,,,,,,,,,,None,9742,,,,,,,,,1,,None
100,100,66,Mozilla,Netscape,"5.0 (X11; CrOS aarch64 14588.123.0) AppleWebKit/537.36 (KHTML, like Gecko) Chrome/101.0.4951.72 Safari/537.36",None,1,m,0,0,27-05-22,27-05-22,15:51:40,0,0,0,0,0,634,3.6.1,226,,m,66,816,1536,24,864,24,0,0,1536,1,Linux aarch64,None
100,100,71,Mozilla,Netscape,"5.0 (X11; CrOS aarch64 14588.123.0) AppleWebKit/537.36 (KHTML, like Gecko) Chrome/101.0.4951.72 Safari/537.36",None,1,m,0,1,27-05-22,27-05-22,15:51:40,0,0,0,0,0,634,3.6.1,226,,m,76,816,1536,24,864,24,0,0,1536,1,Linux aarch64,None
100,100,74,Mozilla,Netscape,"5.0 (X11; CrOS aarch64 14588.123.0) AppleWebKit/537.36 (KHTML, like Gecko) Chrome/101.0.4951.72 Safari/537.36",None,1,m,0,2,27-05-22,27-05-22,15:51:40,0,0,0,0,0,634,3.6.1,226,,m,81,816,1536,24,864,24,0,0,1536,1,Linux aarch64,None
100,100,68,Mozilla,Netscape,"5.0 (X11; CrOS aarch64 14588.123.0) AppleWebKit/537.36 (KHTML, like Gecko) Chrome/101.0.4951.72 Safari/537.36",None,1,m,0,3,27-05-22,27-05-22,15:51:40,0,0,0,0,0,634,3.6.1,226,,m,48,816,1536,24,864,24,0,0,1536,1,Linux aarch64,None
100,100,69,Mozilla,Netscape,"5.0 (X11; CrOS aarch64 14588.123.0) AppleWebKit/537.36 (KHTML, like Gecko) Chrome/101.0.4951.72 Safari/537.36",None,1,m,0,4,27-05-22,27-05-22,15:51:40,0,0,0,0,0,634,3.6.1,226,,m,75,816,1536,24,864,24,0,0,1536,1,Linux aarch64,None
100,100,70,Mozilla,Netscape,"5.0 (X11; CrOS aarch64 14588.123.0) AppleWebKit/537.36 (KHTML, like Gecko) Chrome/101.0.4951.72 Safari/537.36",None,1,m,0,5,27-05-22,27-05-22,15:51:40,0,0,0,0,0,634,3.6.1,226,,m,76,816,1536,24,864,24,0,0,1536,1,Linux aarch64,None
100,100,72,Mozilla,Netscape,"5.0 (X11; CrOS aarch64 14588.123.0) AppleWebKit/537.36 (KHTML, like Gecko) Chrome/101.0.4951.72 Safari/537.36",None,1,m,0,6,27-05-22,27-05-22,15:51:40,0,0,0,0,0,634,3.6.1,226,,m,85,816,1536,24,864,24,0,0,1536,1,Linux aarch64,None
100,100,74,Mozilla,Netscape,"5.0 (X11; CrOS aarch64 14588.123.0) AppleWebKit/537.36 (KHTML, like Gecko) Chrome/101.0.4951.72 Safari/537.36",None,1,m,0,7,27-05-22,27-05-22,15:51:40,0,0,0,0,0,634,3.6.1,226,,m,87,816,1536,24,864,24,0,0,1536,1,Linux aarch64,None
100,100,75,Mozilla,Netscape,"5.0 (X11; CrOS aarch64 14588.123.0) AppleWebKit/537.36 (KHTML, like Gecko) Chrome/101.0.4951.72 Safari/537.36",None,1,m,0,8,27-05-22,27-05-22,15:51:40,0,0,0,0,0,634,3.6.1,226,,m,84,816,1536,24,864,24,0,0,1536,1,Linux aarch64,None
100,100,75,Mozilla,Netscape,"5.0 (X11; CrOS aarch64 14588.123.0) AppleWebKit/537.36 (KHTML, like Gecko) Chrome/101.0.4951.72 Safari/537.36",None,1,m,0,9,27-05-22,27-05-22,15:51:40,0,0,0,0,0,634,3.6.1,226,,m,73,816,1536,24,864,24,0,0,1536,1,Linux aarch64,None
100,100,78,Mozilla,Netscape,"5.0 (X11; CrOS aarch64 14588.123.0) AppleWebKit/537.36 (KHTML, like Gecko) Chrome/101.0.4951.72 Safari/537.36",None,1,m,0,10,27-05-22,27-05-22,15:51:40,0,0,0,0,0,634,3.6.1,226,,m,105,816,1536,24,864,24,0,0,1536,1,Linux aarch64,None
100,100,79,Mozilla,Netscape,"5.0 (X11; CrOS aarch64 14588.123.0) AppleWebKit/537.36 (KHTML, like Gecko) Chrome/101.0.4951.72 Safari/537.36",None,1,m,0,11,27-05-22,27-05-22,15:51:40,0,0,0,0,0,634,3.6.1,226,,m,97,816,1536,24,864,24,0,0,1536,1,Linux aarch64,None
100,100,80,Mozilla,Netscape,"5.0 (X11; CrOS aarch64 14588.123.0) AppleWebKit/537.36 (KHTML, like Gecko) Chrome/101.0.4951.72 Safari/537.36",None,1,m,0,12,27-05-22,27-05-22,15:51:40,0,0,0,0,0,634,3.6.1,226,,m,89,816,1536,24,864,24,0,0,1536,1,Linux aarch64,None
100,100,89,Mozilla,Netscape,"5.0 (X11; CrOS aarch64 14588.123.0) AppleWebKit/537.36 (KHTML, like Gecko) Chrome/101.0.4951.72 Safari/537.36",None,1,m,0,13,27-05-22,27-05-22,15:51:40,0,0,0,0,0,634,3.6.1,226,,m,199,816,1536,24,864,24,0,0,1536,1,Linux aarch64,None
100,100,88,Mozilla,Netscape,"5.0 (X11; CrOS aarch64 14588.123.0) AppleWebKit/537.36 (KHTML, like Gecko) Chrome/101.0.4951.72 Safari/537.36",None,1,m,0,14,27-05-22,27-05-22,15:51:40,0,0,0,0,0,634,3.6.1,226,,m,79,816,1536,24,864,24,0,0,1536,1,Linux aarch64,None
100,100,91,Mozilla,Netscape,"5.0 (X11; CrOS aarch64 14588.123.0) AppleWebKit/537.36 (KHTML, like Gecko) Chrome/101.0.4951.72 Safari/537.36",None,1,m,0,15,27-05-22,27-05-22,15:51:40,0,0,0,0,0,634,3.6.1,226,,m,129,816,1536,24,864,24,0,0,1536,1,Linux aarch64,None
100,100,91,Mozilla,Netscape,"5.0 (X11; CrOS aarch64 14588.123.0) AppleWebKit/537.36 (KHTML, like Gecko) Chrome/101.0.4951.72 Safari/537.36",None,1,m,0,16,27-05-22,27-05-22,15:51:40,0,0,0,0,0,634,3.6.1,226,,m,92,816,1536,24,864,24,0,0,1536,1,Linux aarch64,None
100,100,91,Mozilla,Netscape,"5.0 (X11; CrOS aarch64 14588.123.0) AppleWebKit/537.36 (KHTML, like Gecko) Chrome/101.0.4951.72 Safari/537.36",None,1,m,0,17,27-05-22,27-05-22,15:51:40,0,0,0,0,0,634,3.6.1,226,,m,104,816,1536,24,864,24,0,0,1536,1,Linux aarch64,None
100,100,92,Mozilla,Netscape,"5.0 (X11; CrOS aarch64 14588.123.0) AppleWebKit/537.36 (KHTML, like Gecko) Chrome/101.0.4951.72 Safari/537.36",None,1,m,0,18,27-05-22,27-05-22,15:51:40,0,0,0,0,0,634,3.6.1,226,,m,102,816,1536,24,864,24,0,0,1536,1,Linux aarch64,None
100,100,93,Mozilla,Netscape,"5.0 (X11; CrOS aarch64 14588.123.0) AppleWebKit/537.36 (KHTML, like Gecko) Chrome/101.0.4951.72 Safari/537.36",None,1,m,0,19,27-05-22,27-05-22,15:51:40,0,0,0,0,0,634,3.6.1,226,,m,103,816,1536,24,864,24,0,0,1536,1,Linux aarch64,None
100,100,108,Mozilla,Netscape,"5.0 (X11; CrOS aarch64 14588.123.0) AppleWebKit/537.36 (KHTML, like Gecko) Chrome/101.0.4951.72 Safari/537.36",None,1,m,0,20,27-05-22,27-05-22,15:51:40,0,0,0,0,0,634,3.6.1,226,,m,418,816,1536,24,864,24,0,0,1536,1,Linux aarch64,None
100,100,107,Mozilla,Netscape,"5.0 (X11; CrOS aarch64 14588.123.0) AppleWebKit/537.36 (KHTML, like Gecko) Chrome/101.0.4951.72 Safari/537.36",None,1,m,0,21,27-05-22,27-05-22,15:51:40,0,0,0,0,0,634,3.6.1,226,,m,85,816,1536,24,864,24,0,0,1536,1,Linux aarch64,None
100,100,106,Mozilla,Netscape,"5.0 (X11; CrOS aarch64 14588.123.0) AppleWebKit/537.36 (KHTML, like Gecko) Chrome/101.0.4951.72 Safari/537.36",None,1,m,0,22,27-05-22,27-05-22,15:51:40,0,0,0,0,0,634,3.6.1,226,,m,91,816,1536,24,864,24,0,0,1536,1,Linux aarch64,None
100,100,109,Mozilla,Netscape,"5.0 (X11; CrOS aarch64 14588.123.0) AppleWebKit/537.36 (KHTML, like Gecko) Chrome/101.0.4951.72 Safari/537.36",None,1,m,0,23,27-05-22,27-05-22,15:51:40,0,0,0,0,0,634,3.6.1,226,,m,161,816,1536,24,864,24,0,0,1536,1,Linux aarch64,None
100,100,108,Mozilla,Netscape,"5.0 (X11; CrOS aarch64 14588.123.0) AppleWebKit/537.36 (KHTML, like Gecko) Chrome/101.0.4951.72 Safari/537.36",None,1,m,0,24,27-05-22,27-05-22,15:51:40,0,0,0,0,0,634,3.6.1,226,,m,96,816,1536,24,864,24,0,0,1536,1,Linux aarch64,None
100,100,107,Mozilla,Netscape,"5.0 (X11; CrOS aarch64 14588.123.0) AppleWebKit/537.36 (KHTML, like Gecko) Chrome/101.0.4951.72 Safari/537.36",None,1,m,0,25,27-05-22,27-05-22,15:51:40,0,0,0,0,0,634,3.6.1,226,,m,91,816,1536,24,864,24,0,0,1536,1,Linux aarch64,None
100,100,107,Mozilla,Netscape,"5.0 (X11; CrOS aarch64 14588.123.0) AppleWebKit/537.36 (KHTML, like Gecko) Chrome/101.0.4951.72 Safari/537.36",None,1,m,0,26,27-05-22,27-05-22,15:51:40,0,0,0,0,0,634,3.6.1,226,,m,106,816,1536,24,864,24,0,0,1536,1,Linux aarch64,None
100,100,107,Mozilla,Netscape,"5.0 (X11; CrOS aarch64 14588.123.0) AppleWebKit/537.36 (KHTML, like Gecko) Chrome/101.0.4951.72 Safari/537.36",None,1,m,0,27,27-05-22,27-05-22,15:51:40,0,0,0,0,0,634,3.6.1,226,,m,100,816,1536,24,864,24,0,0,1536,1,Linux aarch64,None
100,100,106,Mozilla,Netscape,"5.0 (X11; CrOS aarch64 14588.123.0) AppleWebKit/537.36 (KHTML, like Gecko) Chrome/101.0.4951.72 Safari/537.36",None,1,m,0,28,27-05-22,27-05-22,15:51:40,0,0,0,0,0,634,3.6.1,226,,m,80,816,1536,24,864,24,0,0,1536,1,Linux aarch64,None
100,100,106,Mozilla,Netscape,"5.0 (X11; CrOS aarch64 14588.123.0) AppleWebKit/537.36 (KHTML, like Gecko) Chrome/101.0.4951.72 Safari/537.36",None,1,m,0,29,27-05-22,27-05-22,15:51:40,0,0,0,0,0,634,3.6.1,226,,m,98,816,1536,24,864,24,0,0,1536,1,Linux aarch64,None
100,100,106,Mozilla,Netscape,"5.0 (X11; CrOS aarch64 14588.123.0) AppleWebKit/537.36 (KHTML, like Gecko) Chrome/101.0.4951.72 Safari/537.36",None,1,m,0,30,27-05-22,27-05-22,15:51:40,0,0,0,0,0,634,3.6.1,226,,m,100,816,1536,24,864,24,0,0,1536,1,Linux aarch64,None
100,100,105,Mozilla,Netscape,"5.0 (X11; CrOS aarch64 14588.123.0) AppleWebKit/537.36 (KHTML, like Gecko) Chrome/101.0.4951.72 Safari/537.36",None,1,m,0,31,27-05-22,27-05-22,15:51:40,0,0,0,0,0,634,3.6.1,226,,m,89,816,1536,24,864,24,0,0,1536,1,Linux aarch64,None
100,100,104,Mozilla,Netscape,"5.0 (X11; CrOS aarch64 14588.123.0) AppleWebKit/537.36 (KHTML, like Gecko) Chrome/101.0.4951.72 Safari/537.36",None,1,m,0,32,27-05-22,27-05-22,15:51:40,0,0,0,0,0,634,3.6.1,226,,m,80,816,1536,24,864,24,0,0,1536,1,Linux aarch64,None
100,100,108,Mozilla,Netscape,"5.0 (X11; CrOS aarch64 14588.123.0) AppleWebKit/537.36 (KHTML, like Gecko) Chrome/101.0.4951.72 Safari/537.36",None,1,m,0,33,27-05-22,27-05-22,15:51:40,0,0,0,0,0,634,3.6.1,226,,m,224,816,1536,24,864,24,0,0,1536,1,Linux aarch64,None
100,100,107,Mozilla,Netscape,"5.0 (X11; CrOS aarch64 14588.123.0) AppleWebKit/537.36 (KHTML, like Gecko) Chrome/101.0.4951.72 Safari/537.36",None,1,m,0,34,27-05-22,27-05-22,15:51:40,0,0,0,0,0,634,3.6.1,226,,m,84,816,1536,24,864,24,0,0,1536,1,Linux aarch64,None
100,100,107,Mozilla,Netscape,"5.0 (X11; CrOS aarch64 14588.123.0) AppleWebKit/537.36 (KHTML, like Gecko) Chrome/101.0.4951.72 Safari/537.36",None,1,m,0,35,27-05-22,27-05-22,15:51:40,0,0,0,0,0,634,3.6.1,226,,m,85,816,1536,24,864,24,0,0,1536,1,Linux aarch64,None
100,100,106,Mozilla,Netscape,"5.0 (X11; CrOS aarch64 14588.123.0) AppleWebKit/537.36 (KHTML, like Gecko) Chrome/101.0.4951.72 Safari/537.36",None,1,m,0,36,27-05-22,27-05-22,15:51:40,0,0,0,0,0,634,3.6.1,226,,m,102,816,1536,24,864,24,0,0,1536,1,Linux aarch64,None
100,100,106,Mozilla,Netscape,"5.0 (X11; CrOS aarch64 14588.123.0) AppleWebKit/537.36 (KHTML, like Gecko) Chrome/101.0.4951.72 Safari/537.36",None,1,m,0,37,27-05-22,27-05-22,15:51:40,0,0,0,0,0,634,3.6.1,226,,m,103,816,1536,24,864,24,0,0,1536,1,Linux aarch64,None
100,100,106,Mozilla,Netscape,"5.0 (X11; CrOS aarch64 14588.123.0) AppleWebKit/537.36 (KHTML, like Gecko) Chrome/101.0.4951.72 Safari/537.36",None,1,m,0,38,27-05-22,27-05-22,15:51:40,0,0,0,0,0,634,3.6.1,226,,m,90,816,1536,24,864,24,0,0,1536,1,Linux aarch64,None
100,100,106,Mozilla,Netscape,"5.0 (X11; CrOS aarch64 14588.123.0) AppleWebKit/537.36 (KHTML, like Gecko) Chrome/101.0.4951.72 Safari/537.36",None,1,m,0,39,27-05-22,27-05-22,15:51:40,0,0,0,0,0,634,3.6.1,226,,m,96,816,1536,24,864,24,0,0,1536,1,Linux aarch64,None
100,100,105,Mozilla,Netscape,"5.0 (X11; CrOS aarch64 14588.123.0) AppleWebKit/537.36 (KHTML, like Gecko) Chrome/101.0.4951.72 Safari/537.36",None,1,m,0,40,27-05-22,27-05-22,15:51:40,0,0,0,0,0,634,3.6.1,226,,m,85,816,1536,24,864,24,0,0,1536,1,Linux aarch64,None
100,100,105,Mozilla,Netscape,"5.0 (X11; CrOS aarch64 14588.123.0) AppleWebKit/537.36 (KHTML, like Gecko) Chrome/101.0.4951.72 Safari/537.36",None,1,m,0,41,27-05-22,27-05-22,15:51:40,0,0,0,0,0,634,3.6.1,226,,m,100,816,1536,24,864,24,0,0,1536,1,Linux aarch64,None
100,100,105,Mozilla,Netscape,"5.0 (X11; CrOS aarch64 14588.123.0) AppleWebKit/537.36 (KHTML, like Gecko) Chrome/101.0.4951.72 Safari/537.36",None,1,m,0,42,27-05-22,27-05-22,15:51:40,0,0,0,0,0,634,3.6.1,226,,m,104,816,1536,24,864,24,0,0,1536,1,Linux aarch64,None
100,100,105,Mozilla,Netscape,"5.0 (X11; CrOS aarch64 14588.123.0) AppleWebKit/537.36 (KHTML, like Gecko) Chrome/101.0.4951.72 Safari/537.36",None,1,m,0,43,27-05-22,27-05-22,15:51:40,0,0,0,0,0,634,3.6.1,226,,m,102,816,1536,24,864,24,0,0,1536,1,Linux aarch64,None
100,100,105,Mozilla,Netscape,"5.0 (X11; CrOS aarch64 14588.123.0) AppleWebKit/537.36 (KHTML, like Gecko) Chrome/101.0.4951.72 Safari/537.36",None,1,m,0,44,27-05-22,27-05-22,15:51:40,0,0,0,0,0,634,3.6.1,226,,m,86,816,1536,24,864,24,0,0,1536,1,Linux aarch64,None
100,100,104,Mozilla,Netscape,"5.0 (X11; CrOS aarch64 14588.123.0) AppleWebKit/537.36 (KHTML, like Gecko) Chrome/101.0.4951.72 Safari/537.36",None,1,m,0,45,27-05-22,27-05-22,15:51:40,0,0,0,0,0,634,3.6.1,226,,m,100,816,1536,24,864,24,0,0,1536,1,Linux aarch64,None
100,100,105,Mozilla,Netscape,"5.0 (X11; CrOS aarch64 14588.123.0) AppleWebKit/537.36 (KHTML, like Gecko) Chrome/101.0.4951.72 Safari/537.36",None,1,m,0,46,27-05-22,27-05-22,15:51:40,0,0,0,0,0,634,3.6.1,226,,m,110,816,1536,24,864,24,0,0,1536,1,Linux aarch64,None
100,100,104,Mozilla,Netscape,"5.0 (X11; CrOS aarch64 14588.123.0) AppleWebKit/537.36 (KHTML, like Gecko) Chrome/101.0.4951.72 Safari/537.36",None,1,m,0,47,27-05-22,27-05-22,15:51:40,0,0,0,0,0,634,3.6.1,226,,m,82,816,1536,24,864,24,0,0,1536,1,Linux aarch64,None
100,100,104,Mozilla,Netscape,"5.0 (X11; CrOS aarch64 14588.123.0) AppleWebKit/537.36 (KHTML, like Gecko) Chrome/101.0.4951.72 Safari/537.36",None,1,m,0,48,27-05-22,27-05-22,15:51:40,0,0,0,0,0,634,3.6.1,226,,m,104,816,1536,24,864,24,0,0,1536,1,Linux aarch64,None
100,100,104,Mozilla,Netscape,"5.0 (X11; CrOS aarch64 14588.123.0) AppleWebKit/537.36 (KHTML, like Gecko) Chrome/101.0.4951.72 Safari/537.36",None,1,m,0,49,27-05-22,27-05-22,15:51:40,0,0,0,0,0,634,3.6.1,226,,m,88,816,1536,24,864,24,0,0,1536,1,Linux aarch64,None
100,100,85,,,,None,1,m,0,0,,,,,,,,,,,,,m,85,,,,,,,,,1,,None
100,100,80,,,,None,1,m,0,1,,,,,,,,,,,,,m,75,,,,,,,,,1,,None
100,100,86,,,,None,1,m,0,2,,,,,,,,,,,,,m,97,,,,,,,,,1,,None
100,100,86,,,,None,1,m,0,3,,,,,,,,,,,,,m,85,,,,,,,,,1,,None
100,100,92,,,,None,1,m,0,4,,,,,,,,,,,,,m,117,,,,,,,,,1,,None
100,100,95,,,,None,1,m,0,5,,,,,,,,,,,,,m,113,,,,,,,,,1,,None
100,100,96,,,,None,1,m,0,6,,,,,,,,,,,,,m,103,,,,,,,,,1,,None
100,100,99,,,,None,1,m,0,7,,,,,,,,,,,,,m,116,,,,,,,,,1,,None
100,100,114,,,,None,1,m,0,8,,,,,,,,,,,,,m,237,,,,,,,,,1,,None
100,100,115,,,,None,1,m,0,9,,,,,,,,,,,,,m,122,,,,,,,,,1,,None
100,100,115,,,,None,1,m,0,10,,,,,,,,,,,,,m,119,,,,,,,,,1,,None
100,100,115,,,,None,1,m,0,11,,,,,,,,,,,,,m,116,,,,,,,,,1,,None
100,100,116,,,,None,1,m,0,12,,,,,,,,,,,,,m,124,,,,,,,,,1,,None
100,100,118,,,,None,1,m,0,13,,,,,,,,,,,,,m,143,,,,,,,,,1,,None
100,100,119,,,,None,1,m,0,14,,,,,,,,,,,,,m,131,,,,,,,,,1,,None
100,100,120,,,,None,1,m,0,15,,,,,,,,,,,,,m,134,,,,,,,,,1,,None
100,100,121,,,,None,1,m,0,16,,,,,,,,,,,,,m,137,,,,,,,,,1,,None
100,100,122,,,,None,1,m,0,17,,,,,,,,,,,,,m,139,,,,,,,,,1,,None
100,100,122,,,,None,1,m,0,18,,,,,,,,,,,,,m,127,,,,,,,,,1,,None
100,100,124,,,,None,1,m,0,19,,,,,,,,,,,,,m,168,,,,,,,,,1,,None
100,100,318,,,,None,1,m,0,20,,,,,,,,,,,,,m,4189,,,,,,,,,1,,None
95,95,531,,,,None,0,m,0,21,,,,,,,,,,,,,None,5012,,,,,,,,,1,,None
100,100,298,,,,None,1,m,0,0,,,,,,,,,,,,,m,298,,,,,,,,,1,,None
100,100,203,,,,None,1,m,0,1,,,,,,,,,,,,,m,107,,,,,,,,,1,,None
100,100,181,,,,None,1,m,0,2,,,,,,,,,,,,,m,138,,,,,,,,,1,,None
100,100,161,,,,None,1,m,0,3,,,,,,,,,,,,,m,100,,,,,,,,,1,,None
100,100,154,,,,None,1,m,0,4,,,,,,,,,,,,,m,129,,,,,,,,,1,,None
100,100,149,,,,None,1,m,0,5,,,,,,,,,,,,,m,119,,,,,,,,,1,,None
100,100,143,,,,None,1,m,0,6,,,,,,,,,,,,,m,111,,,,,,,,,1,,None
100,100,140,,,,None,1,m,0,7,,,,,,,,,,,,,m,118,,,,,,,,,1,,None
100,100,139,,,,None,1,m,0,8,,,,,,,,,,,,,m,129,,,,,,,,,1,,None
100,100,138,,,,None,1,m,0,9,,,,,,,,,,,,,m,131,,,,,,,,,1,,None
100,100,135,,,,None,1,m,0,10,,,,,,,,,,,,,m,105,,,,,,,,,1,,None
100,100,134,,,,None,1,m,0,11,,,,,,,,,,,,,m,122,,,,,,,,,1,,None
100,100,133,,,,None,1,m,0,12,,,,,,,,,,,,,m,125,,,,,,,,,1,,None
100,100,132,,,,None,1,m,0,13,,,,,,,,,,,,,m,116,,,,,,,,,1,,None
100,100,131,,,,None,1,m,0,14,,,,,,,,,,,,,m,118,,,,,,,,,1,,None
100,100,131,,,,None,1,m,0,15,,,,,,,,,,,,,m,131,,,,,,,,,1,,None
100,100,131,,,,None,1,m,0,16,,,,,,,,,,,,,m,131,,,,,,,,,1,,None
100,100,129,,,,None,1,m,0,17,,,,,,,,,,,,,m,94,,,,,,,,,1,,None
100,100,129,,,,None,1,m,0,18,,,,,,,,,,,,,m,130,,,,,,,,,1,,None
100,100,130,,,,None,1,m,0,19,,,,,,,,,,,,,m,142,,,,,,,,,1,,None
100,100,129,,,,None,1,m,0,20,,,,,,,,,,,,,m,117,,,,,,,,,1,,None
100,100,129,,,,None,1,m,0,21,,,,,,,,,,,,,m,118,,,,,,,,,1,,None
100,100,128,,,,None,1,m,0,22,,,,,,,,,,,,,m,119,,,,,,,,,1,,None
100,100,128,,,,None,1,m,0,23,,,,,,,,,,,,,m,120,,,,,,,,,1,,None
100,100,128,,,,None,1,m,0,24,,,,,,,,,,,,,m,122,,,,,,,,,1,,None
100,100,127,,,,None,1,m,0,25,,,,,,,,,,,,,m,123,,,,,,,,,1,,None
100,100,127,,,,None,1,m,0,26,,,,,,,,,,,,,m,125,,,,,,,,,1,,None
100,100,127,,,,None,1,m,0,27,,,,,,,,,,,,,m,116,,,,,,,,,1,,None
100,100,127,,,,None,1,m,0,28,,,,,,,,,,,,,m,128,,,,,,,,,1,,None
100,100,127,,,,None,1,m,0,29,,,,,,,,,,,,,m,129,,,,,,,,,1,,None
100,100,127,,,,None,1,m,0,30,,,,,,,,,,,,,m,132,,,,,,,,,1,,None
100,100,127,,,,None,1,m,0,31,,,,,,,,,,,,,m,126,,,,,,,,,1,,None
100,100,127,,,,None,1,m,0,32,,,,,,,,,,,,,m,129,,,,,,,,,1,,None
100,100,127,,,,None,1,m,0,33,,,,,,,,,,,,,m,132,,,,,,,,,1,,None
100,100,127,,,,None,1,m,0,34,,,,,,,,,,,,,m,127,,,,,,,,,1,,None
100,100,128,,,,None,1,m,0,35,,,,,,,,,,,,,m,152,,,,,,,,,1,,None
100,100,128,,,,None,1,m,0,36,,,,,,,,,,,,,m,131,,,,,,,,,1,,None
100,100,128,,,,None,1,m,0,37,,,,,,,,,,,,,m,134,,,,,,,,,1,,None
100,100,128,,,,None,1,m,0,38,,,,,,,,,,,,,m,116,,,,,,,,,1,,None
100,100,128,,,,None,1,m,0,39,,,,,,,,,,,,,m,117,,,,,,,,,1,,None
100,100,127,,,,None,1,m,0,40,,,,,,,,,,,,,m,118,,,,,,,,,1,,None
100,100,127,,,,None,1,m,0,41,,,,,,,,,,,,,m,123,,,,,,,,,1,,None
100,100,128,,,,None,1,m,0,42,,,,,,,,,,,,,m,146,,,,,,,,,1,,None
100,100,128,,,,None,1,m,0,43,,,,,,,,,,,,,m,141,,,,,,,,,1,,None
100,100,128,,,,None,1,m,0,44,,,,,,,,,,,,,m,126,,,,,,,,,1,,None
100,100,128,,,,None,1,m,0,45,,,,,,,,,,,,,m,128,,,,,,,,,1,,None
100,100,128,,,,None,1,m,0,46,,,,,,,,,,,,,m,119,,,,,,,,,1,,None
100,100,128,,,,None,1,m,0,47,,,,,,,,,,,,,m,120,,,,,,,,,1,,None
100,100,128,,,,None,1,m,0,48,,,,,,,,,,,,,m,122,,,,,,,,,1,,None
100,100,128,,,,None,1,m,0,49,,,,,,,,,,,,,m,145,,,,,,,,,1,,None
100,100,311,Mozilla,Netscape,5.0 (Macintosh),None,1,m,0,0,27-05-22,27-05-22,14:34:32,0,0,0,0,0,623,3.6.1,226,,m,311,1175,1920,30,1200,30,277,114,1920,0,MacIntel,None
100,100,216,Mozilla,Netscape,5.0 (Macintosh),None,1,m,0,1,27-05-22,27-05-22,14:34:32,0,0,0,0,0,623,3.6.1,226,,m,120,1175,1920,30,1200,30,277,114,1920,0,MacIntel,None
100,100,184,Mozilla,Netscape,5.0 (Macintosh),None,1,m,0,2,27-05-22,27-05-22,14:34:32,0,0,0,0,0,623,3.6.1,226,,m,120,1175,1920,30,1200,30,277,114,1920,0,MacIntel,None
100,100,165,Mozilla,Netscape,5.0 (Macintosh),None,1,m,0,3,27-05-22,27-05-22,14:34:32,0,0,0,0,0,623,3.6.1,226,,m,110,1175,1920,30,1200,30,277,114,1920,0,MacIntel,None
100,100,158,Mozilla,Netscape,5.0 (Macintosh),None,1,m,0,4,27-05-22,27-05-22,14:34:32,0,0,0,0,0,623,3.6.1,226,,m,130,1175,1920,30,1200,30,277,114,1920,0,MacIntel,None
100,100,152,Mozilla,Netscape,5.0 (Macintosh),None,1,m,0,5,27-05-22,27-05-22,14:34:32,0,0,0,0,0,623,3.6.1,226,,m,121,1175,1920,30,1200,30,277,114,1920,0,MacIntel,None
100,100,149,Mozilla,Netscape,5.0 (Macintosh),None,1,m,0,6,27-05-22,27-05-22,14:34:32,0,0,0,0,0,623,3.6.1,226,,m,132,1175,1920,30,1200,30,277,114,1920,0,MacIntel,None
100,100,147,Mozilla,Netscape,5.0 (Macintosh),None,1,m,0,7,27-05-22,27-05-22,14:34:32,0,0,0,0,0,623,3.6.1,226,,m,128,1175,1920,30,1200,30,277,114,1920,0,MacIntel,None
100,100,145,Mozilla,Netscape,5.0 (Macintosh),None,1,m,0,8,27-05-22,27-05-22,14:34:32,0,0,0,0,0,623,3.6.1,226,,m,130,1175,1920,30,1200,30,277,114,1920,0,MacIntel,None
100,100,141,Mozilla,Netscape,5.0 (Macintosh),None,1,m,0,9,27-05-22,27-05-22,14:34:32,0,0,0,0,0,623,3.6.1,226,,m,104,1175,1920,30,1200,30,277,114,1920,0,MacIntel,None
100,100,140,Mozilla,Netscape,5.0 (Macintosh),None,1,m,0,10,27-05-22,27-05-22,14:34:32,0,0,0,0,0,623,3.6.1,226,,m,133,1175,1920,30,1200,30,277,114,1920,0,MacIntel,None
100,100,139,Mozilla,Netscape,5.0 (Macintosh),None,1,m,0,11,27-05-22,27-05-22,14:34:32,0,0,0,0,0,623,3.6.1,226,,m,130,1175,1920,30,1200,30,277,114,1920,0,MacIntel,None
100,100,138,Mozilla,Netscape,5.0 (Macintosh),None,1,m,0,12,27-05-22,27-05-22,14:34:32,0,0,0,0,0,623,3.6.1,226,,m,121,1175,1920,30,1200,30,277,114,1920,0,MacIntel,None
100,100,137,Mozilla,Netscape,5.0 (Macintosh),None,1,m,0,13,27-05-22,27-05-22,14:34:32,0,0,0,0,0,623,3.6.1,226,,m,132,1175,1920,30,1200,30,277,114,1920,0,MacIntel,None
100,100,136,Mozilla,Netscape,5.0 (Macintosh),None,1,m,0,14,27-05-22,27-05-22,14:34:32,0,0,0,0,0,623,3.6.1,226,,m,117,1175,1920,30,1200,30,277,114,1920,0,MacIntel,None
100,100,136,Mozilla,Netscape,5.0 (Macintosh),None,1,m,0,15,27-05-22,27-05-22,14:34:32,0,0,0,0,0,623,3.6.1,226,,m,130,1175,1920,30,1200,30,277,114,1920,0,MacIntel,None
100,100,135,Mozilla,Netscape,5.0 (Macintosh),None,1,m,0,16,27-05-22,27-05-22,14:34:32,0,0,0,0,0,623,3.6.1,226,,m,121,1175,1920,30,1200,30,277,114,1920,0,MacIntel,None
100,100,133,Mozilla,Netscape,5.0 (Macintosh),None,1,m,0,17,27-05-22,27-05-22,14:34:32,0,0,0,0,0,623,3.6.1,226,,m,99,1175,1920,30,1200,30,277,114,1920,0,MacIntel,None
100,100,131,Mozilla,Netscape,5.0 (Macintosh),None,1,m,0,18,27-05-22,27-05-22,14:34:32,0,0,0,0,0,623,3.6.1,226,,m,106,1175,1920,30,1200,30,277,114,1920,0,MacIntel,None
100,100,130,Mozilla,Netscape,5.0 (Macintosh),None,1,m,0,19,27-05-22,27-05-22,14:34:32,0,0,0,0,0,623,3.6.1,226,,m,114,1175,1920,30,1200,30,277,114,1920,0,MacIntel,None
100,100,130,Mozilla,Netscape,5.0 (Macintosh),None,1,m,0,20,27-05-22,27-05-22,14:34:32,0,0,0,0,0,623,3.6.1,226,,m,128,1175,1920,30,1200,30,277,114,1920,0,MacIntel,None
100,100,131,Mozilla,Netscape,5.0 (Macintosh),None,1,m,0,21,27-05-22,27-05-22,14:34:32,0,0,0,0,0,623,3.6.1,226,,m,141,1175,1920,30,1200,30,277,114,1920,0,MacIntel,None
100,100,131,Mozilla,Netscape,5.0 (Macintosh),None,1,m,0,22,27-05-22,27-05-22,14:34:32,0,0,0,0,0,623,3.6.1,226,,m,135,1175,1920,30,1200,30,277,114,1920,0,MacIntel,None
100,100,131,Mozilla,Netscape,5.0 (Macintosh),None,1,m,0,23,27-05-22,27-05-22,14:34:32,0,0,0,0,0,623,3.6.1,226,,m,131,1175,1920,30,1200,30,277,114,1920,0,MacIntel,None
100,100,131,Mozilla,Netscape,5.0 (Macintosh),None,1,m,0,24,27-05-22,27-05-22,14:34:32,0,0,0,0,0,623,3.6.1,226,,m,127,1175,1920,30,1200,30,277,114,1920,0,MacIntel,None
100,100,130,Mozilla,Netscape,5.0 (Macintosh),None,1,m,0,25,27-05-22,27-05-22,14:34:32,0,0,0,0,0,623,3.6.1,226,,m,118,1175,1920,30,1200,30,277,114,1920,0,MacIntel,None
100,100,130,Mozilla,Netscape,5.0 (Macintosh),None,1,m,0,26,27-05-22,27-05-22,14:34:32,0,0,0,0,0,623,3.6.1,226,,m,120,1175,1920,30,1200,30,277,114,1920,0,MacIntel,None
100,100,130,Mozilla,Netscape,5.0 (Macintosh),None,1,m,0,27,27-05-22,27-05-22,14:34:32,0,0,0,0,0,623,3.6.1,226,,m,132,1175,1920,30,1200,30,277,114,1920,0,MacIntel,None
100,100,130,Mozilla,Netscape,5.0 (Macintosh),None,1,m,0,28,27-05-22,27-05-22,14:34:32,0,0,0,0,0,623,3.6.1,226,,m,128,1175,1920,30,1200,30,277,114,1920,0,MacIntel,None
100,100,130,Mozilla,Netscape,5.0 (Macintosh),None,1,m,0,29,27-05-22,27-05-22,14:34:32,0,0,0,0,0,623,3.6.1,226,,m,142,1175,1920,30,1200,30,277,114,1920,0,MacIntel,None
100,100,131,Mozilla,Netscape,5.0 (Macintosh),None,1,m,0,30,27-05-22,27-05-22,14:34:32,0,0,0,0,0,623,3.6.1,226,,m,138,1175,1920,30,1200,30,277,114,1920,0,MacIntel,None
100,100,130,Mozilla,Netscape,5.0 (Macintosh),None,1,m,0,31,27-05-22,27-05-22,14:34:32,0,0,0,0,0,623,3.6.1,226,,m,122,1175,1920,30,1200,30,277,114,1920,0,MacIntel,None
100,100,131,Mozilla,Netscape,5.0 (Macintosh),None,1,m,0,32,27-05-22,27-05-22,14:34:32,0,0,0,0,0,623,3.6.1,226,,m,142,1175,1920,30,1200,30,277,114,1920,0,MacIntel,None
100,100,131,Mozilla,Netscape,5.0 (Macintosh),None,1,m,0,33,27-05-22,27-05-22,14:34:32,0,0,0,0,0,623,3.6.1,226,,m,130,1175,1920,30,1200,30,277,114,1920,0,MacIntel,None
100,100,130,Mozilla,Netscape,5.0 (Macintosh),None,1,m,0,34,27-05-22,27-05-22,14:34:32,0,0,0,0,0,623,3.6.1,226,,m,113,1175,1920,30,1200,30,277,114,1920,0,MacIntel,None
100,100,130,Mozilla,Netscape,5.0 (Macintosh),None,1,m,0,35,27-05-22,27-05-22,14:34:32,0,0,0,0,0,623,3.6.1,226,,m,128,1175,1920,30,1200,30,277,114,1920,0,MacIntel,None
100,100,130,Mozilla,Netscape,5.0 (Macintosh),None,1,m,0,36,27-05-22,27-05-22,14:34:32,0,0,0,0,0,623,3.6.1,226,,m,141,1175,1920,30,1200,30,277,114,1920,0,MacIntel,None
100,100,131,Mozilla,Netscape,5.0 (Macintosh),None,1,m,0,37,27-05-22,27-05-22,14:34:32,0,0,0,0,0,623,3.6.1,226,,m,137,1175,1920,30,1200,30,277,114,1920,0,MacIntel,None
100,100,130,Mozilla,Netscape,5.0 (Macintosh),None,1,m,0,38,27-05-22,27-05-22,14:34:32,0,0,0,0,0,623,3.6.1,226,,m,124,1175,1920,30,1200,30,277,114,1920,0,MacIntel,None
100,100,130,Mozilla,Netscape,5.0 (Macintosh),None,1,m,0,39,27-05-22,27-05-22,14:34:32,0,0,0,0,0,623,3.6.1,226,,m,124,1175,1920,30,1200,30,277,114,1920,0,MacIntel,None
100,100,130,Mozilla,Netscape,5.0 (Macintosh),None,1,m,0,40,27-05-22,27-05-22,14:34:32,0,0,0,0,0,623,3.6.1,226,,m,126,1175,1920,30,1200,30,277,114,1920,0,MacIntel,None
100,100,130,Mozilla,Netscape,5.0 (Macintosh),None,1,m,0,41,27-05-22,27-05-22,14:34:32,0,0,0,0,0,623,3.6.1,226,,m,139,1175,1920,30,1200,30,277,114,1920,0,MacIntel,None
100,100,130,Mozilla,Netscape,5.0 (Macintosh),None,1,m,0,42,27-05-22,27-05-22,14:34:32,0,0,0,0,0,623,3.6.1,226,,m,135,1175,1920,30,1200,30,277,114,1920,0,MacIntel,None
100,100,130,Mozilla,Netscape,5.0 (Macintosh),None,1,m,0,43,27-05-22,27-05-22,14:34:32,0,0,0,0,0,623,3.6.1,226,,m,131,1175,1920,30,1200,30,277,114,1920,0,MacIntel,None
100,100,130,Mozilla,Netscape,5.0 (Macintosh),None,1,m,0,44,27-05-22,27-05-22,14:34:32,0,0,0,0,0,623,3.6.1,226,,m,127,1175,1920,30,1200,30,277,114,1920,0,MacIntel,None
100,100,130,Mozilla,Netscape,5.0 (Macintosh),None,1,m,0,45,27-05-22,27-05-22,14:34:32,0,0,0,0,0,623,3.6.1,226,,m,117,1175,1920,30,1200,30,277,114,1920,0,MacIntel,None
100,100,130,Mozilla,Netscape,5.0 (Macintosh),None,1,m,0,46,27-05-22,27-05-22,14:34:32,0,0,0,0,0,623,3.6.1,226,,m,141,1175,1920,30,1200,30,277,114,1920,0,MacIntel,None
100,100,130,Mozilla,Netscape,5.0 (Macintosh),None,1,m,0,47,27-05-22,27-05-22,14:34:32,0,0,0,0,0,623,3.6.1,226,,m,117,1175,1920,30,1200,30,277,114,1920,0,MacIntel,None
100,100,130,Mozilla,Netscape,5.0 (Macintosh),None,1,m,0,48,27-05-22,27-05-22,14:34:32,0,0,0,0,0,623,3.6.1,226,,m,116,1175,1920,30,1200,30,277,114,1920,0,MacIntel,None
100,100,130,Mozilla,Netscape,5.0 (Macintosh),None,1,m,0,49,27-05-22,27-05-22,14:34:32,0,0,0,0,0,623,3.6.1,226,,m,131,1175,1920,30,1200,30,277,114,1920,0,MacIntel,None
100,100,239,Mozilla,Netscape,5.0 (Macintosh),None,1,m,0,0,27-05-22,27-05-22,14:34:05,0,0,0,0,0,622,3.6.1,226,,m,239,1175,1920,30,1200,30,277,114,1920,1,MacIntel,None
100,100,176,Mozilla,Netscape,5.0 (Macintosh),None,1,m,0,1,27-05-22,27-05-22,14:34:05,0,0,0,0,0,622,3.6.1,226,,m,112,1175,1920,30,1200,30,277,114,1920,1,MacIntel,None
100,100,157,Mozilla,Netscape,5.0 (Macintosh),None,1,m,0,2,27-05-22,27-05-22,14:34:05,0,0,0,0,0,622,3.6.1,226,,m,121,1175,1920,30,1200,30,277,114,1920,1,MacIntel,None
100,100,149,Mozilla,Netscape,5.0 (Macintosh),None,1,m,0,3,27-05-22,27-05-22,14:34:05,0,0,0,0,0,622,3.6.1,226,,m,122,1175,1920,30,1200,30,277,114,1920,1,MacIntel,None
100,100,144,Mozilla,Netscape,5.0 (Macintosh),None,1,m,0,4,27-05-22,27-05-22,14:34:05,0,0,0,0,0,622,3.6.1,226,,m,125,1175,1920,30,1200,30,277,114,1920,1,MacIntel,None
100,100,141,Mozilla,Netscape,5.0 (Macintosh),None,1,m,0,5,27-05-22,27-05-22,14:34:05,0,0,0,0,0,622,3.6.1,226,,m,124,1175,1920,30,1200,30,277,114,1920,1,MacIntel,None
100,100,137,Mozilla,Netscape,5.0 (Macintosh),None,1,m,0,6,27-05-22,27-05-22,14:34:05,0,0,0,0,0,622,3.6.1,226,,m,118,1175,1920,30,1200,30,277,114,1920,1,MacIntel,None
100,100,136,Mozilla,Netscape,5.0 (Macintosh),None,1,m,0,7,27-05-22,27-05-22,14:34:05,0,0,0,0,0,622,3.6.1,226,,m,130,1175,1920,30,1200,30,277,114,1920,1,MacIntel,None
100,100,134,Mozilla,Netscape,5.0 (Macintosh),None,1,m,0,8,27-05-22,27-05-22,14:34:05,0,0,0,0,0,622,3.6.1,226,,m,119,1175,1920,30,1200,30,277,114,1920,1,MacIntel,None
100,100,133,Mozilla,Netscape,5.0 (Macintosh),None,1,m,0,9,27-05-22,27-05-22,14:34:05,0,0,0,0,0,622,3.6.1,226,,m,121,1175,1920,30,1200,30,277,114,1920,1,MacIntel,None
100,100,133,Mozilla,Netscape,5.0 (Macintosh),None,1,m,0,10,27-05-22,27-05-22,14:34:05,0,0,0,0,0,622,3.6.1,226,,m,134,1175,1920,30,1200,30,277,114,1920,1,MacIntel,None
100,100,142,Mozilla,Netscape,5.0 (Macintosh),None,1,m,0,11,27-05-22,27-05-22,14:34:05,0,0,0,0,0,622,3.6.1,226,,m,242,1175,1920,30,1200,30,277,114,1920,1,MacIntel,None
100,100,140,Mozilla,Netscape,5.0 (Macintosh),None,1,m,0,12,27-05-22,27-05-22,14:34:05,0,0,0,0,0,622,3.6.1,226,,m,117,1175,1920,30,1200,30,277,114,1920,1,MacIntel,None
100,100,138,Mozilla,Netscape,5.0 (Macintosh),None,1,m,0,13,27-05-22,27-05-22,14:34:05,0,0,0,0,0,622,3.6.1,226,,m,105,1175,1920,30,1200,30,277,114,1920,1,MacIntel,None
100,100,139,Mozilla,Netscape,5.0 (Macintosh),None,1,m,0,14,27-05-22,27-05-22,14:34:05,0,0,0,0,0,622,3.6.1,226,,m,159,1175,1920,30,1200,30,277,114,1920,1,MacIntel,None
100,100,139,Mozilla,Netscape,5.0 (Macintosh),None,1,m,0,15,27-05-22,27-05-22,14:34:05,0,0,0,0,0,622,3.6.1,226,,m,137,1175,1920,30,1200,30,277,114,1920,1,MacIntel,None
100,100,135,Mozilla,Netscape,5.0 (Macintosh),None,1,m,0,16,27-05-22,27-05-22,14:34:05,0,0,0,0,0,622,3.6.1,226,,m,77,1175,1920,30,1200,30,277,114,1920,1,MacIntel,None
100,100,136,Mozilla,Netscape,5.0 (Macintosh),None,1,m,0,17,27-05-22,27-05-22,14:34:05,0,0,0,0,0,622,3.6.1,226,,m,140,1175,1920,30,1200,30,277,114,1920,1,MacIntel,None
100,100,134,Mozilla,Netscape,5.0 (Macintosh),None,1,m,0,18,27-05-22,27-05-22,14:34:05,0,0,0,0,0,622,3.6.1,226,,m,112,1175,1920,30,1200,30,277,114,1920,1,MacIntel,None
100,100,134,Mozilla,Netscape,5.0 (Macintosh),None,1,m,0,19,27-05-22,27-05-22,14:34:05,0,0,0,0,0,622,3.6.1,226,,m,120,1175,1920,30,1200,30,277,114,1920,1,MacIntel,None
100,100,133,Mozilla,Netscape,5.0 (Macintosh),None,1,m,0,20,27-05-22,27-05-22,14:34:05,0,0,0,0,0,622,3.6.1,226,,m,123,1175,1920,30,1200,30,277,114,1920,1,MacIntel,None
100,100,132,Mozilla,Netscape,5.0 (Macintosh),None,1,m,0,21,27-05-22,27-05-22,14:34:05,0,0,0,0,0,622,3.6.1,226,,m,112,1175,1920,30,1200,30,277,114,1920,1,MacIntel,None
100,100,132,Mozilla,Netscape,5.0 (Macintosh),None,1,m,0,22,27-05-22,27-05-22,14:34:05,0,0,0,0,0,622,3.6.1,226,,m,131,1175,1920,30,1200,30,277,114,1920,1,MacIntel,None
100,100,132,Mozilla,Netscape,5.0 (Macintosh),None,1,m,0,23,27-05-22,27-05-22,14:34:05,0,0,0,0,0,622,3.6.1,226,,m,116,1175,1920,30,1200,30,277,114,1920,1,MacIntel,None
100,100,131,Mozilla,Netscape,5.0 (Macintosh),None,1,m,0,24,27-05-22,27-05-22,14:34:05,0,0,0,0,0,622,3.6.1,226,,m,107,1175,1920,30,1200,30,277,114,1920,1,MacIntel,None
100,100,130,Mozilla,Netscape,5.0 (Macintosh),None,1,m,0,25,27-05-22,27-05-22,14:34:05,0,0,0,0,0,622,3.6.1,226,,m,115,1175,1920,30,1200,30,277,114,1920,1,MacIntel,None
100,100,130,Mozilla,Netscape,5.0 (Macintosh),None,1,m,0,26,27-05-22,27-05-22,14:34:05,0,0,0,0,0,622,3.6.1,226,,m,132,1175,1920,30,1200,30,277,114,1920,1,MacIntel,None
100,100,130,Mozilla,Netscape,5.0 (Macintosh),None,1,m,0,27,27-05-22,27-05-22,14:34:05,0,0,0,0,0,622,3.6.1,226,,m,139,1175,1920,30,1200,30,277,114,1920,1,MacIntel,None
100,100,130,Mozilla,Netscape,5.0 (Macintosh),None,1,m,0,28,27-05-22,27-05-22,14:34:05,0,0,0,0,0,622,3.6.1,226,,m,112,1175,1920,30,1200,30,277,114,1920,1,MacIntel,None
100,100,130,Mozilla,Netscape,5.0 (Macintosh),None,1,m,0,29,27-05-22,27-05-22,14:34:05,0,0,0,0,0,622,3.6.1,226,,m,132,1175,1920,30,1200,30,277,114,1920,1,MacIntel,None
100,100,129,Mozilla,Netscape,5.0 (Macintosh),None,1,m,0,30,27-05-22,27-05-22,14:34:05,0,0,0,0,0,622,3.6.1,226,,m,104,1175,1920,30,1200,30,277,114,1920,1,MacIntel,None
100,100,128,Mozilla,Netscape,5.0 (Macintosh),None,1,m,0,31,27-05-22,27-05-22,14:34:05,0,0,0,0,0,622,3.6.1,226,,m,111,1175,1920,30,1200,30,277,114,1920,1,MacIntel,None
100,100,128,Mozilla,Netscape,5.0 (Macintosh),None,1,m,0,32,27-05-22,27-05-22,14:34:05,0,0,0,0,0,622,3.6.1,226,,m,130,1175,1920,30,1200,30,277,114,1920,1,MacIntel,None
100,100,129,Mozilla,Netscape,5.0 (Macintosh),None,1,m,0,33,27-05-22,27-05-22,14:34:05,0,0,0,0,0,622,3.6.1,226,,m,132,1175,1920,30,1200,30,277,114,1920,1,MacIntel,None
100,100,128,Mozilla,Netscape,5.0 (Macintosh),None,1,m,0,34,27-05-22,27-05-22,14:34:05,0,0,0,0,0,622,3.6.1,226,,m,123,1175,1920,30,1200,30,277,114,1920,1,MacIntel,None
100,100,128,Mozilla,Netscape,5.0 (Macintosh),None,1,m,0,35,27-05-22,27-05-22,14:34:05,0,0,0,0,0,622,3.6.1,226,,m,115,1175,1920,30,1200,30,277,114,1920,1,MacIntel,None
100,100,128,Mozilla,Netscape,5.0 (Macintosh),None,1,m,0,36,27-05-22,27-05-22,14:34:05,0,0,0,0,0,622,3.6.1,226,,m,116,1175,1920,30,1200,30,277,114,1920,1,MacIntel,None
100,100,127,Mozilla,Netscape,5.0 (Macintosh),None,1,m,0,37,27-05-22,27-05-22,14:34:05,0,0,0,0,0,622,3.6.1,226,,m,119,1175,1920,30,1200,30,277,114,1920,1,MacIntel,None
100,100,127,Mozilla,Netscape,5.0 (Macintosh),None,1,m,0,38,27-05-22,27-05-22,14:34:05,0,0,0,0,0,622,3.6.1,226,,m,121,1175,1920,30,1200,30,277,114,1920,1,MacIntel,None
100,100,127,Mozilla,Netscape,5.0 (Macintosh),None,1,m,0,39,27-05-22,27-05-22,14:34:05,0,0,0,0,0,622,3.6.1,226,,m,102,1175,1920,30,1200,30,277,114,1920,1,MacIntel,None
100,100,127,Mozilla,Netscape,5.0 (Macintosh),None,1,m,0,40,27-05-22,27-05-22,14:34:05,0,0,0,0,0,622,3.6.1,226,,m,131,1175,1920,30,1200,30,277,114,1920,1,MacIntel,None
100,100,127,Mozilla,Netscape,5.0 (Macintosh),None,1,m,0,41,27-05-22,27-05-22,14:34:05,0,0,0,0,0,622,3.6.1,226,,m,116,1175,1920,30,1200,30,277,114,1920,1,MacIntel,None
100,100,126,Mozilla,Netscape,5.0 (Macintosh),None,1,m,0,42,27-05-22,27-05-22,14:34:05,0,0,0,0,0,622,3.6.1,226,,m,105,1175,1920,30,1200,30,277,114,1920,1,MacIntel,None
100,100,126,Mozilla,Netscape,5.0 (Macintosh),None,1,m,0,43,27-05-22,27-05-22,14:34:05,0,0,0,0,0,622,3.6.1,226,,m,113,1175,1920,30,1200,30,277,114,1920,1,MacIntel,None
100,100,125,Mozilla,Netscape,5.0 (Macintosh),None,1,m,0,44,27-05-22,27-05-22,14:34:05,0,0,0,0,0,622,3.6.1,226,,m,109,1175,1920,30,1200,30,277,114,1920,1,MacIntel,None
100,100,125,Mozilla,Netscape,5.0 (Macintosh),None,1,m,0,45,27-05-22,27-05-22,14:34:05,0,0,0,0,0,622,3.6.1,226,,m,116,1175,1920,30,1200,30,277,114,1920,1,MacIntel,None
100,100,125,Mozilla,Netscape,5.0 (Macintosh),None,1,m,0,46,27-05-22,27-05-22,14:34:05,0,0,0,0,0,622,3.6.1,226,,m,105,1175,1920,30,1200,30,277,114,1920,1,MacIntel,None
100,100,125,Mozilla,Netscape,5.0 (Macintosh),None,1,m,0,47,27-05-22,27-05-22,14:34:05,0,0,0,0,0,622,3.6.1,226,,m,124,1175,1920,30,1200,30,277,114,1920,1,MacIntel,None
100,100,124,Mozilla,Netscape,5.0 (Macintosh),None,1,m,0,48,27-05-22,27-05-22,14:34:05,0,0,0,0,0,622,3.6.1,226,,m,114,1175,1920,30,1200,30,277,114,1920,1,MacIntel,None
100,100,124,Mozilla,Netscape,5.0 (Macintosh),None,1,m,0,49,27-05-22,27-05-22,14:34:05,0,0,0,0,0,622,3.6.1,226,,m,94,1175,1920,30,1200,30,277,114,1920,1,MacIntel,None
100,100,86,,,,None,1,m,0,0,,,,,,,,,,,,,m,86,,,,,,,,,0,,None
100,100,104,,,,None,1,m,0,1,,,,,,,,,,,,,m,121,,,,,,,,,0,,None
100,100,110,,,,None,1,m,0,2,,,,,,,,,,,,,m,123,,,,,,,,,0,,None
100,100,111,,,,None,1,m,0,3,,,,,,,,,,,,,m,113,,,,,,,,,0,,None
100,100,126,,,,None,1,m,0,4,,,,,,,,,,,,,m,188,,,,,,,,,0,,None
100,100,120,,,,None,1,m,0,5,,,,,,,,,,,,,m,89,,,,,,,,,0,,None
100,100,119,,,,None,1,m,0,6,,,,,,,,,,,,,m,112,,,,,,,,,0,,None
100,100,119,,,,None,1,m,0,7,,,,,,,,,,,,,m,120,,,,,,,,,0,,None
100,100,120,,,,None,1,m,0,8,,,,,,,,,,,,,m,132,,,,,,,,,0,,None
100,100,120,,,,None,1,m,0,9,,,,,,,,,,,,,m,116,,,,,,,,,0,,None
100,100,120,,,,None,1,m,0,10,,,,,,,,,,,,,m,119,,,,,,,,,0,,None
100,100,120,,,,None,1,m,0,11,,,,,,,,,,,,,m,118,,,,,,,,,0,,None
100,100,121,,,,None,1,m,0,12,,,,,,,,,,,,,m,131,,,,,,,,,0,,None
100,100,120,,,,None,1,m,0,13,,,,,,,,,,,,,m,116,,,,,,,,,0,,None
100,100,120,,,,None,1,m,0,14,,,,,,,,,,,,,m,119,,,,,,,,,0,,None
100,100,119,,,,None,1,m,0,15,,,,,,,,,,,,,m,108,,,,,,,,,0,,None
100,100,120,,,,None,1,m,0,16,,,,,,,,,,,,,m,127,,,,,,,,,0,,None
100,100,121,,,,None,1,m,0,17,,,,,,,,,,,,,m,142,,,,,,,,,0,,None
100,100,123,,,,None,1,m,0,18,,,,,,,,,,,,,m,159,,,,,,,,,0,,None
100,100,123,,,,None,1,m,0,19,,,,,,,,,,,,,m,127,,,,,,,,,0,,None
100,100,122,,,,None,1,m,0,20,,,,,,,,,,,,,m,106,,,,,,,,,0,,None
100,100,123,,,,None,1,m,0,21,,,,,,,,,,,,,m,123,,,,,,,,,0,,None
100,100,123,,,,None,1,m,0,22,,,,,,,,,,,,,m,126,,,,,,,,,0,,None
100,100,122,,,,None,1,m,0,23,,,,,,,,,,,,,m,117,,,,,,,,,0,,None
100,100,122,,,,None,1,m,0,24,,,,,,,,,,,,,m,120,,,,,,,,,0,,None
100,100,122,,,,None,1,m,0,25,,,,,,,,,,,,,m,120,,,,,,,,,0,,None
100,100,123,,,,None,1,m,0,26,,,,,,,,,,,,,m,143,,,,,,,,,0,,None
100,100,123,,,,None,1,m,0,27,,,,,,,,,,,,,m,117,,,,,,,,,0,,None
100,100,123,,,,None,1,m,0,28,,,,,,,,,,,,,m,131,,,,,,,,,0,,None
100,100,123,,,,None,1,m,0,29,,,,,,,,,,,,,m,123,,,,,,,,,0,,None
100,100,123,,,,None,1,m,0,30,,,,,,,,,,,,,m,122,,,,,,,,,0,,None
100,100,123,,,,None,1,m,0,31,,,,,,,,,,,,,m,124,,,,,,,,,0,,None
100,100,123,,,,None,1,m,0,32,,,,,,,,,,,,,m,127,,,,,,,,,0,,None
100,100,123,,,,None,1,m,0,33,,,,,,,,,,,,,m,128,,,,,,,,,0,,None
100,100,123,,,,None,1,m,0,34,,,,,,,,,,,,,m,119,,,,,,,,,0,,None
100,100,123,,,,None,1,m,0,35,,,,,,,,,,,,,m,131,,,,,,,,,0,,None
100,100,123,,,,None,1,m,0,36,,,,,,,,,,,,,m,121,,,,,,,,,0,,None
100,100,123,,,,None,1,m,0,37,,,,,,,,,,,,,m,123,,,,,,,,,0,,None
100,100,124,,,,None,1,m,0,38,,,,,,,,,,,,,m,135,,,,,,,,,0,,None
100,100,124,,,,None,1,m,0,39,,,,,,,,,,,,,m,131,,,,,,,,,0,,None
100,100,124,,,,None,1,m,0,40,,,,,,,,,,,,,m,116,,,,,,,,,0,,None
100,100,123,,,,None,1,m,0,41,,,,,,,,,,,,,m,105,,,,,,,,,0,,None
100,100,124,,,,None,1,m,0,42,,,,,,,,,,,,,m,147,,,,,,,,,0,,None
100,100,124,,,,None,1,m,0,43,,,,,,,,,,,,,m,122,,,,,,,,,0,,None
100,100,124,,,,None,1,m,0,44,,,,,,,,,,,,,m,120,,,,,,,,,0,,None
100,100,124,,,,None,1,m,0,45,,,,,,,,,,,,,m,134,,,,,,,,,0,,None
100,100,124,,,,None,1,m,0,46,,,,,,,,,,,,,m,108,,,,,,,,,0,,None
100,100,123,,,,None,1,m,0,47,,,,,,,,,,,,,m,115,,,,,,,,,0,,None
100,100,123,,,,None,1,m,0,48,,,,,,,,,,,,,m,127,,,,,,,,,0,,None
100,100,123,,,,None,1,m,0,49,,,,,,,,,,,,,m,108,,,,,,,,,0,,None
100,100,153,Mozilla,Netscape,5.0 (Macintosh),None,1,m,0,0,27-05-22,27-05-22,14:33:09,0,0,0,0,0,620,3.6.1,226,,m,153,1175,1920,30,1200,30,277,114,1920,1,MacIntel,None
100,100,131,Mozilla,Netscape,5.0 (Macintosh),None,1,m,0,1,27-05-22,27-05-22,14:33:09,0,0,0,0,0,620,3.6.1,226,,m,109,1175,1920,30,1200,30,277,114,1920,1,MacIntel,None
100,100,130,Mozilla,Netscape,5.0 (Macintosh),None,1,m,0,2,27-05-22,27-05-22,14:33:09,0,0,0,0,0,620,3.6.1,226,,m,128,1175,1920,30,1200,30,277,114,1920,1,MacIntel,None
100,100,127,Mozilla,Netscape,5.0 (Macintosh),None,1,m,0,3,27-05-22,27-05-22,14:33:09,0,0,0,0,0,620,3.6.1,226,,m,119,1175,1920,30,1200,30,277,114,1920,1,MacIntel,None
100,100,126,Mozilla,Netscape,5.0 (Macintosh),None,1,m,0,4,27-05-22,27-05-22,14:33:09,0,0,0,0,0,620,3.6.1,226,,m,120,1175,1920,30,1200,30,277,114,1920,1,MacIntel,None
100,100,125,Mozilla,Netscape,5.0 (Macintosh),None,1,m,0,5,27-05-22,27-05-22,14:33:09,0,0,0,0,0,620,3.6.1,226,,m,118,1175,1920,30,1200,30,277,114,1920,1,MacIntel,None
100,100,124,Mozilla,Netscape,5.0 (Macintosh),None,1,m,0,6,27-05-22,27-05-22,14:33:09,0,0,0,0,0,620,3.6.1,226,,m,122,1175,1920,30,1200,30,277,114,1920,1,MacIntel,None
100,100,123,Mozilla,Netscape,5.0 (Macintosh),None,1,m,0,7,27-05-22,27-05-22,14:33:09,0,0,0,0,0,620,3.6.1,226,,m,113,1175,1920,30,1200,30,277,114,1920,1,MacIntel,None
100,100,124,Mozilla,Netscape,5.0 (Macintosh),None,1,m,0,8,27-05-22,27-05-22,14:33:09,0,0,0,0,0,620,3.6.1,226,,m,131,1175,1920,30,1200,30,277,114,1920,1,MacIntel,None
100,100,124,Mozilla,Netscape,5.0 (Macintosh),None,1,m,0,9,27-05-22,27-05-22,14:33:09,0,0,0,0,0,620,3.6.1,226,,m,127,1175,1920,30,1200,30,277,114,1920,1,MacIntel,None
100,100,124,Mozilla,Netscape,5.0 (Macintosh),None,1,m,0,10,27-05-22,27-05-22,14:33:09,0,0,0,0,0,620,3.6.1,226,,m,129,1175,1920,30,1200,30,277,114,1920,1,MacIntel,None
100,100,124,Mozilla,Netscape,5.0 (Macintosh),None,1,m,0,11,27-05-22,27-05-22,14:33:09,0,0,0,0,0,620,3.6.1,226,,m,119,1175,1920,30,1200,30,277,114,1920,1,MacIntel,None
100,100,123,Mozilla,Netscape,5.0 (Macintosh),None,1,m,0,12,27-05-22,27-05-22,14:33:09,0,0,0,0,0,620,3.6.1,226,,m,114,1175,1920,30,1200,30,277,114,1920,1,MacIntel,None
100,100,123,Mozilla,Netscape,5.0 (Macintosh),None,1,m,0,13,27-05-22,27-05-22,14:33:09,0,0,0,0,0,620,3.6.1,226,,m,118,1175,1920,30,1200,30,277,114,1920,1,MacIntel,None
100,100,122,Mozilla,Netscape,5.0 (Macintosh),None,1,m,0,14,27-05-22,27-05-22,14:33:09,0,0,0,0,0,620,3.6.1,226,,m,106,1175,1920,30,1200,30,277,114,1920,1,MacIntel,None
100,100,121,Mozilla,Netscape,5.0 (Macintosh),None,1,m,0,15,27-05-22,27-05-22,14:33:09,0,0,0,0,0,620,3.6.1,226,,m,102,1175,1920,30,1200,30,277,114,1920,1,MacIntel,None
100,100,120,Mozilla,Netscape,5.0 (Macintosh),None,1,m,0,16,27-05-22,27-05-22,14:33:09,0,0,0,0,0,620,3.6.1,226,,m,110,1175,1920,30,1200,30,277,114,1920,1,MacIntel,None
100,100,120,Mozilla,Netscape,5.0 (Macintosh),None,1,m,0,17,27-05-22,27-05-22,14:33:09,0,0,0,0,0,620,3.6.1,226,,m,128,1175,1920,30,1200,30,277,114,1920,1,MacIntel,None
100,100,120,Mozilla,Netscape,5.0 (Macintosh),None,1,m,0,18,27-05-22,27-05-22,14:33:09,0,0,0,0,0,620,3.6.1,226,,m,119,1175,1920,30,1200,30,277,114,1920,1,MacIntel,None
100,100,120,Mozilla,Netscape,5.0 (Macintosh),None,1,m,0,19,27-05-22,27-05-22,14:33:09,0,0,0,0,0,620,3.6.1,226,,m,107,1175,1920,30,1200,30,277,114,1920,1,MacIntel,None
100,100,120,Mozilla,Netscape,5.0 (Macintosh),None,1,m,0,20,27-05-22,27-05-22,14:33:09,0,0,0,0,0,620,3.6.1,226,,m,138,1175,1920,30,1200,30,277,114,1920,1,MacIntel,None
100,100,121,Mozilla,Netscape,5.0 (Macintosh),None,1,m,0,21,27-05-22,27-05-22,14:33:09,0,0,0,0,0,620,3.6.1,226,,m,122,1175,1920,30,1200,30,277,114,1920,1,MacIntel,None
100,100,121,Mozilla,Netscape,5.0 (Macintosh),None,1,m,0,22,27-05-22,27-05-22,14:33:09,0,0,0,0,0,620,3.6.1,226,,m,123,1175,1920,30,1200,30,277,114,1920,1,MacIntel,None
100,100,122,Mozilla,Netscape,5.0 (Macintosh),None,1,m,0,23,27-05-22,27-05-22,14:33:09,0,0,0,0,0,620,3.6.1,226,,m,148,1175,1920,30,1200,30,277,114,1920,1,MacIntel,None
100,100,121,Mozilla,Netscape,5.0 (Macintosh),None,1,m,0,24,27-05-22,27-05-22,14:33:09,0,0,0,0,0,620,3.6.1,226,,m,106,1175,1920,30,1200,30,277,114,1920,1,MacIntel,None
100,100,121,Mozilla,Netscape,5.0 (Macintosh),None,1,m,0,25,27-05-22,27-05-22,14:33:09,0,0,0,0,0,620,3.6.1,226,,m,124,1175,1920,30,1200,30,277,114,1920,1,MacIntel,None
100,100,120,Mozilla,Netscape,5.0 (Macintosh),None,1,m,0,26,27-05-22,27-05-22,14:33:09,0,0,0,0,0,620,3.6.1,226,,m,91,1175,1920,30,1200,30,277,114,1920,1,MacIntel,None
100,100,122,Mozilla,Netscape,5.0 (Macintosh),None,1,m,0,27,27-05-22,27-05-22,14:33:09,0,0,0,0,0,620,3.6.1,226,,m,183,1175,1920,30,1200,30,277,114,1920,1,MacIntel,None
100,100,122,Mozilla,Netscape,5.0 (Macintosh),None,1,m,0,28,27-05-22,27-05-22,14:33:09,0,0,0,0,0,620,3.6.1,226,,m,119,1175,1920,30,1200,30,277,114,1920,1,MacIntel,None
100,100,122,Mozilla,Netscape,5.0 (Macintosh),None,1,m,0,29,27-05-22,27-05-22,14:33:09,0,0,0,0,0,620,3.6.1,226,,m,119,1175,1920,30,1200,30,277,114,1920,1,MacIntel,None
100,100,122,Mozilla,Netscape,5.0 (Macintosh),None,1,m,0,30,27-05-22,27-05-22,14:33:09,0,0,0,0,0,620,3.6.1,226,,m,122,1175,1920,30,1200,30,277,114,1920,1,MacIntel,None
100,100,122,Mozilla,Netscape,5.0 (Macintosh),None,1,m,0,31,27-05-22,27-05-22,14:33:09,0,0,0,0,0,620,3.6.1,226,,m,122,1175,1920,30,1200,30,277,114,1920,1,MacIntel,None
100,100,122,Mozilla,Netscape,5.0 (Macintosh),None,1,m,0,32,27-05-22,27-05-22,14:33:09,0,0,0,0,0,620,3.6.1,226,,m,124,1175,1920,30,1200,30,277,114,1920,1,MacIntel,None
100,100,123,Mozilla,Netscape,5.0 (Macintosh),None,1,m,0,33,27-05-22,27-05-22,14:33:09,0,0,0,0,0,620,3.6.1,226,,m,137,1175,1920,30,1200,30,277,114,1920,1,MacIntel,None
100,100,123,Mozilla,Netscape,5.0 (Macintosh),None,1,m,0,34,27-05-22,27-05-22,14:33:09,0,0,0,0,0,620,3.6.1,226,,m,120,1175,1920,30,1200,30,277,114,1920,1,MacIntel,None
100,100,124,Mozilla,Netscape,5.0 (Macintosh),None,1,m,0,35,27-05-22,27-05-22,14:33:09,0,0,0,0,0,620,3.6.1,226,,m,157,1175,1920,30,1200,30,277,114,1920,1,MacIntel,None
100,100,123,Mozilla,Netscape,5.0 (Macintosh),None,1,m,0,36,27-05-22,27-05-22,14:33:09,0,0,0,0,0,620,3.6.1,226,,m,113,1175,1920,30,1200,30,277,114,1920,1,MacIntel,None
100,100,124,Mozilla,Netscape,5.0 (Macintosh),None,1,m,0,37,27-05-22,27-05-22,14:33:09,0,0,0,0,0,620,3.6.1,226,,m,152,1175,1920,30,1200,30,277,114,1920,1,MacIntel,None
100,100,124,Mozilla,Netscape,5.0 (Macintosh),None,1,m,0,38,27-05-22,27-05-22,14:33:09,0,0,0,0,0,620,3.6.1,226,,m,109,1175,1920,30,1200,30,277,114,1920,1,MacIntel,None
100,100,124,Mozilla,Netscape,5.0 (Macintosh),None,1,m,0,39,27-05-22,27-05-22,14:33:09,0,0,0,0,0,620,3.6.1,226,,m,139,1175,1920,30,1200,30,277,114,1920,1,MacIntel,None
100,100,124,Mozilla,Netscape,5.0 (Macintosh),None,1,m,0,40,27-05-22,27-05-22,14:33:09,0,0,0,0,0,620,3.6.1,226,,m,124,1175,1920,30,1200,30,277,114,1920,1,MacIntel,None
100,100,124,Mozilla,Netscape,5.0 (Macintosh),None,1,m,0,41,27-05-22,27-05-22,14:33:09,0,0,0,0,0,620,3.6.1,226,,m,138,1175,1920,30,1200,30,277,114,1920,1,MacIntel,None
100,100,125,Mozilla,Netscape,5.0 (Macintosh),None,1,m,0,42,27-05-22,27-05-22,14:33:09,0,0,0,0,0,620,3.6.1,226,,m,133,1175,1920,30,1200,30,277,114,1920,1,MacIntel,None
100,100,124,Mozilla,Netscape,5.0 (Macintosh),None,1,m,0,43,27-05-22,27-05-22,14:33:09,0,0,0,0,0,620,3.6.1,226,,m,121,1175,1920,30,1200,30,277,114,1920,1,MacIntel,None
100,100,124,Mozilla,Netscape,5.0 (Macintosh),None,1,m,0,44,27-05-22,27-05-22,14:33:09,0,0,0,0,0,620,3.6.1,226,,m,120,1175,1920,30,1200,30,277,114,1920,1,MacIntel,None
100,100,124,Mozilla,Netscape,5.0 (Macintosh),None,1,m,0,45,27-05-22,27-05-22,14:33:09,0,0,0,0,0,620,3.6.1,226,,m,123,1175,1920,30,1200,30,277,114,1920,1,MacIntel,None
100,100,125,Mozilla,Netscape,5.0 (Macintosh),None,1,m,0,46,27-05-22,27-05-22,14:33:09,0,0,0,0,0,620,3.6.1,226,,m,135,1175,1920,30,1200,30,277,114,1920,1,MacIntel,None
100,100,125,Mozilla,Netscape,5.0 (Macintosh),None,1,m,0,47,27-05-22,27-05-22,14:33:09,0,0,0,0,0,620,3.6.1,226,,m,130,1175,1920,30,1200,30,277,114,1920,1,MacIntel,None
100,100,124,Mozilla,Netscape,5.0 (Macintosh),None,1,m,0,48,27-05-22,27-05-22,14:33:09,0,0,0,0,0,620,3.6.1,226,,m,116,1175,1920,30,1200,30,277,114,1920,1,MacIntel,None
100,100,124,Mozilla,Netscape,5.0 (Macintosh),None,1,m,0,49,27-05-22,27-05-22,14:33:09,0,0,0,0,0,620,3.6.1,226,,m,107,1175,1920,30,1200,30,277,114,1920,1,MacIntel,None
100,100,311,Mozilla,Netscape,5.0 (Macintosh),None,1,m,0,0,27-05-22,27-05-22,14:32:36,0,0,0,0,0,619,3.6.1,226,,m,311,1175,1920,30,1200,30,277,114,1920,0,MacIntel,None
100,100,203,Mozilla,Netscape,5.0 (Macintosh),None,1,m,0,1,27-05-22,27-05-22,14:32:36,0,0,0,0,0,619,3.6.1,226,,m,94,1175,1920,30,1200,30,277,114,1920,0,MacIntel,None
100,100,178,Mozilla,Netscape,5.0 (Macintosh),None,1,m,0,2,27-05-22,27-05-22,14:32:36,0,0,0,0,0,619,3.6.1,226,,m,129,1175,1920,30,1200,30,277,114,1920,0,MacIntel,None
100,100,163,Mozilla,Netscape,5.0 (Macintosh),None,1,m,0,3,27-05-22,27-05-22,14:32:36,0,0,0,0,0,619,3.6.1,226,,m,116,1175,1920,30,1200,30,277,114,1920,0,MacIntel,None
100,100,154,Mozilla,Netscape,5.0 (Macintosh),None,1,m,0,4,27-05-22,27-05-22,14:32:36,0,0,0,0,0,619,3.6.1,226,,m,118,1175,1920,30,1200,30,277,114,1920,0,MacIntel,None
100,100,152,Mozilla,Netscape,5.0 (Macintosh),None,1,m,0,5,27-05-22,27-05-22,14:32:36,0,0,0,0,0,619,3.6.1,226,,m,141,1175,1920,30,1200,30,277,114,1920,0,MacIntel,None
100,100,148,Mozilla,Netscape,5.0 (Macintosh),None,1,m,0,6,27-05-22,27-05-22,14:32:36,0,0,0,0,0,619,3.6.1,226,,m,125,1175,1920,30,1200,30,277,114,1920,0,MacIntel,None
100,100,144,Mozilla,Netscape,5.0 (Macintosh),None,1,m,0,7,27-05-22,27-05-22,14:32:36,0,0,0,0,0,619,3.6.1,226,,m,115,1175,1920,30,1200,30,277,114,1920,0,MacIntel,None
100,100,143,Mozilla,Netscape,5.0 (Macintosh),None,1,m,0,8,27-05-22,27-05-22,14:32:36,0,0,0,0,0,619,3.6.1,226,,m,140,1175,1920,30,1200,30,277,114,1920,0,MacIntel,None
100,100,142,Mozilla,Netscape,5.0 (Macintosh),None,1,m,0,9,27-05-22,27-05-22,14:32:36,0,0,0,0,0,619,3.6.1,226,,m,126,1175,1920,30,1200,30,277,114,1920,0,MacIntel,None
100,100,140,Mozilla,Netscape,5.0 (Macintosh),None,1,m,0,10,27-05-22,27-05-22,14:32:36,0,0,0,0,0,619,3.6.1,226,,m,127,1175,1920,30,1200,30,277,114,1920,0,MacIntel,None
100,100,140,Mozilla,Netscape,5.0 (Macintosh),None,1,m,0,11,27-05-22,27-05-22,14:32:36,0,0,0,0,0,619,3.6.1,226,,m,140,1175,1920,30,1200,30,277,114,1920,0,MacIntel,None
100,100,139,Mozilla,Netscape,5.0 (Macintosh),None,1,m,0,12,27-05-22,27-05-22,14:32:36,0,0,0,0,0,619,3.6.1,226,,m,124,1175,1920,30,1200,30,277,114,1920,0,MacIntel,None
100,100,138,Mozilla,Netscape,5.0 (Macintosh),None,1,m,0,13,27-05-22,27-05-22,14:32:36,0,0,0,0,0,619,3.6.1,226,,m,127,1175,1920,30,1200,30,277,114,1920,0,MacIntel,None
100,100,139,Mozilla,Netscape,5.0 (Macintosh),None,1,m,0,14,27-05-22,27-05-22,14:32:36,0,0,0,0,0,619,3.6.1,226,,m,150,1175,1920,30,1200,30,277,114,1920,0,MacIntel,None
100,100,139,Mozilla,Netscape,5.0 (Macintosh),None,1,m,0,15,27-05-22,27-05-22,14:32:36,0,0,0,0,0,619,3.6.1,226,,m,143,1175,1920,30,1200,30,277,114,1920,0,MacIntel,None
100,100,138,Mozilla,Netscape,5.0 (Macintosh),None,1,m,0,16,27-05-22,27-05-22,14:32:36,0,0,0,0,0,619,3.6.1,226,,m,126,1175,1920,30,1200,30,277,114,1920,0,MacIntel,None
100,100,138,Mozilla,Netscape,5.0 (Macintosh),None,1,m,0,17,27-05-22,27-05-22,14:32:36,0,0,0,0,0,619,3.6.1,226,,m,128,1175,1920,30,1200,30,277,114,1920,0,MacIntel,None
100,100,139,Mozilla,Netscape,5.0 (Macintosh),None,1,m,0,18,27-05-22,27-05-22,14:32:36,0,0,0,0,0,619,3.6.1,226,,m,152,1175,1920,30,1200,30,277,114,1920,0,MacIntel,None
100,100,138,Mozilla,Netscape,5.0 (Macintosh),None,1,m,0,19,27-05-22,27-05-22,14:32:36,0,0,0,0,0,619,3.6.1,226,,m,129,1175,1920,30,1200,30,277,114,1920,0,MacIntel,None
100,100,137,Mozilla,Netscape,5.0 (Macintosh),None,1,m,0,20,27-05-22,27-05-22,14:32:36,0,0,0,0,0,619,3.6.1,226,,m,117,1175,1920,30,1200,30,277,114,1920,0,MacIntel,None
100,100,136,Mozilla,Netscape,5.0 (Macintosh),None,1,m,0,21,27-05-22,27-05-22,14:32:36,0,0,0,0,0,619,3.6.1,226,,m,119,1175,1920,30,1200,30,277,114,1920,0,MacIntel,None
100,100,136,Mozilla,Netscape,5.0 (Macintosh),None,1,m,0,22,27-05-22,27-05-22,14:32:36,0,0,0,0,0,619,3.6.1,226,,m,130,1175,1920,30,1200,30,277,114,1920,0,MacIntel,None
100,100,136,Mozilla,Netscape,5.0 (Macintosh),None,1,m,0,23,27-05-22,27-05-22,14:32:36,0,0,0,0,0,619,3.6.1,226,,m,144,1175,1920,30,1200,30,277,114,1920,0,MacIntel,None
100,100,136,Mozilla,Netscape,5.0 (Macintosh),None,1,m,0,24,27-05-22,27-05-22,14:32:36,0,0,0,0,0,619,3.6.1,226,,m,139,1175,1920,30,1200,30,277,114,1920,0,MacIntel,None
100,100,137,Mozilla,Netscape,5.0 (Macintosh),None,1,m,0,25,27-05-22,27-05-22,14:32:36,0,0,0,0,0,619,3.6.1,226,,m,147,1175,1920,30,1200,30,277,114,1920,0,MacIntel,None
100,100,137,Mozilla,Netscape,5.0 (Macintosh),None,1,m,0,26,27-05-22,27-05-22,14:32:36,0,0,0,0,0,619,3.6.1,226,,m,133,1175,1920,30,1200,30,277,114,1920,0,MacIntel,None
100,100,136,Mozilla,Netscape,5.0 (Macintosh),None,1,m,0,27,27-05-22,27-05-22,14:32:36,0,0,0,0,0,619,3.6.1,226,,m,117,1175,1920,30,1200,30,277,114,1920,0,MacIntel,None
100,100,135,Mozilla,Netscape,5.0 (Macintosh),None,1,m,0,28,27-05-22,27-05-22,14:32:36,0,0,0,0,0,619,3.6.1,226,,m,119,1175,1920,30,1200,30,277,114,1920,0,MacIntel,None
100,100,135,Mozilla,Netscape,5.0 (Macintosh),None,1,m,0,29,27-05-22,27-05-22,14:32:36,0,0,0,0,0,619,3.6.1,226,,m,132,1175,1920,30,1200,30,277,114,1920,0,MacIntel,None
100,100,136,Mozilla,Netscape,5.0 (Macintosh),None,1,m,0,30,27-05-22,27-05-22,14:32:36,0,0,0,0,0,619,3.6.1,226,,m,167,1175,1920,30,1200,30,277,114,1920,0,MacIntel,None
100,100,135,Mozilla,Netscape,5.0 (Macintosh),None,1,m,0,31,27-05-22,27-05-22,14:32:36,0,0,0,0,0,619,3.6.1,226,,m,107,1175,1920,30,1200,30,277,114,1920,0,MacIntel,None
100,100,135,Mozilla,Netscape,5.0 (Macintosh),None,1,m,0,32,27-05-22,27-05-22,14:32:36,0,0,0,0,0,619,3.6.1,226,,m,136,1175,1920,30,1200,30,277,114,1920,0,MacIntel,None
100,100,135,Mozilla,Netscape,5.0 (Macintosh),None,1,m,0,33,27-05-22,27-05-22,14:32:36,0,0,0,0,0,619,3.6.1,226,,m,133,1175,1920,30,1200,30,277,114,1920,0,MacIntel,None
100,100,135,Mozilla,Netscape,5.0 (Macintosh),None,1,m,0,34,27-05-22,27-05-22,14:32:36,0,0,0,0,0,619,3.6.1,226,,m,139,1175,1920,30,1200,30,277,114,1920,0,MacIntel,None
100,100,137,Mozilla,Netscape,5.0 (Macintosh),None,1,m,0,35,27-05-22,27-05-22,14:32:36,0,0,0,0,0,619,3.6.1,226,,m,204,1175,1920,30,1200,30,277,114,1920,0,MacIntel,None
100,100,135,Mozilla,Netscape,5.0 (Macintosh),None,1,m,0,36,27-05-22,27-05-22,14:32:36,0,0,0,0,0,619,3.6.1,226,,m,67,1175,1920,30,1200,30,277,114,1920,0,MacIntel,None
100,100,135,Mozilla,Netscape,5.0 (Macintosh),None,1,m,0,37,27-05-22,27-05-22,14:32:36,0,0,0,0,0,619,3.6.1,226,,m,107,1175,1920,30,1200,30,277,114,1920,0,MacIntel,None
100,100,135,Mozilla,Netscape,5.0 (Macintosh),None,1,m,0,38,27-05-22,27-05-22,14:32:36,0,0,0,0,0,619,3.6.1,226,,m,135,1175,1920,30,1200,30,277,114,1920,0,MacIntel,None
100,100,135,Mozilla,Netscape,5.0 (Macintosh),None,1,m,0,39,27-05-22,27-05-22,14:32:36,0,0,0,0,0,619,3.6.1,226,,m,143,1175,1920,30,1200,30,277,114,1920,0,MacIntel,None
100,100,135,Mozilla,Netscape,5.0 (Macintosh),None,1,m,0,40,27-05-22,27-05-22,14:32:36,0,0,0,0,0,619,3.6.1,226,,m,138,1175,1920,30,1200,30,277,114,1920,0,MacIntel,None
100,100,135,Mozilla,Netscape,5.0 (Macintosh),None,1,m,0,41,27-05-22,27-05-22,14:32:36,0,0,0,0,0,619,3.6.1,226,,m,134,1175,1920,30,1200,30,277,114,1920,0,MacIntel,None
100,100,135,Mozilla,Netscape,5.0 (Macintosh),None,1,m,0,42,27-05-22,27-05-22,14:32:36,0,0,0,0,0,619,3.6.1,226,,m,120,1175,1920,30,1200,30,277,114,1920,0,MacIntel,None
100,100,135,Mozilla,Netscape,5.0 (Macintosh),None,1,m,0,43,27-05-22,27-05-22,14:32:36,0,0,0,0,0,619,3.6.1,226,,m,143,1175,1920,30,1200,30,277,114,1920,0,MacIntel,None
100,100,135,Mozilla,Netscape,5.0 (Macintosh),None,1,m,0,44,27-05-22,27-05-22,14:32:36,0,0,0,0,0,619,3.6.1,226,,m,128,1175,1920,30,1200,30,277,114,1920,0,MacIntel,None
100,100,135,Mozilla,Netscape,5.0 (Macintosh),None,1,m,0,45,27-05-22,27-05-22,14:32:36,0,0,0,0,0,619,3.6.1,226,,m,142,1175,1920,30,1200,30,277,114,1920,0,MacIntel,None
100,100,135,Mozilla,Netscape,5.0 (Macintosh),None,1,m,0,46,27-05-22,27-05-22,14:32:36,0,0,0,0,0,619,3.6.1,226,,m,125,1175,1920,30,1200,30,277,114,1920,0,MacIntel,None
100,100,135,Mozilla,Netscape,5.0 (Macintosh),None,1,m,0,47,27-05-22,27-05-22,14:32:36,0,0,0,0,0,619,3.6.1,226,,m,140,1175,1920,30,1200,30,277,114,1920,0,MacIntel,None
100,100,135,Mozilla,Netscape,5.0 (Macintosh),None,1,m,0,48,27-05-22,27-05-22,14:32:36,0,0,0,0,0,619,3.6.1,226,,m,135,1175,1920,30,1200,30,277,114,1920,0,MacIntel,None
100,100,135,Mozilla,Netscape,5.0 (Macintosh),None,1,m,0,49,27-05-22,27-05-22,14:32:36,0,0,0,0,0,619,3.6.1,226,,m,131,1175,1920,30,1200,30,277,114,1920,0,MacIntel,None
