"acc","accuracy","average_response_time","avg_rt","background","canvas_backend","clock_backend","color_backend","compensation","condition","coordinates","correct","correct_keyboard_response_short","count_experiment","count_fixation","count_keyboard_response_short","count_logger_short","count_mask1","count_mask2","count_mask3","count_new_sequence","count_prime","count_short_loop","count_target","datetime","description","disable_garbage_collection","experiment_file","experiment_path","font_bold","font_family","font_italic","font_size","font_underline","foreground","form_clicks","fullscreen","height","keyboard_backend","live_row","live_row_short_loop","logfile","mouse_backend","opensesame_codename","opensesame_version","prime","repeat_cycle","response","response_keyboard_response_short","response_time","response_time_keyboard_response_short","round_decimals","sampler_backend","soa_condition","sound_buf_size","sound_channels","sound_freq","sound_sample_size","start","subject_nr","subject_parity","target","time_experiment","time_fixation","time_keyboard_response_short","time_logger_short","time_mask1","time_mask2","time_mask3","time_new_sequence","time_prime","time_short_loop","time_target","title","total_correct","total_response_time","total_responses","uniform_coordinates","width"
"undefined","undefined","756.0432079480961","756.0432079480961","black","psycho","psycho","psycho","0","Con_Nat","uniform","undefined","undefined","0","0","0","0","0","0","0","0","0","0","0","Thu Oct 27 13:28:47 2022","The main experiment item","yes","Masked_repetition_priming.osexp","/Users/ethan/Documents/GitHub/OpenSesame/Masked repetition priming/experiment","no","mono","no","18","no","white","no","yes","768","psycho","0","0","/Users/ethan/Documents/GitHub/OpenSesame/Masked repetition priming/experiment/subject-0.csv","psycho","Lentiform Loewenfeld","3.3.12","corn","0","n","n","756.0432079480961","756.0432079480961","2","psycho","short","1024","2","48000","-16","experiment","0","even","corn","2035.6354160467163","2435.958833026234","5835.7721250504255","6605.584541044664","5444.720166036859","5725.890541041736","5801.7266660463065","2429.671958030667","5761.737207998522","2035.8145830105059","5835.628083033953","Masked_repetition_priming","0","756.0432079480961","1","yes","1024"
"undefined","undefined","946.2549579620827","946.2549579620827","black","psycho","psycho","psycho","0","Inc_Nat_Synth","uniform","undefined","undefined","0","1","1","1","1","1","1","1","1","0","1","Thu Oct 27 13:28:47 2022","The main experiment item","yes","Masked_repetition_priming.osexp","/Users/ethan/Documents/GitHub/OpenSesame/Masked repetition priming/experiment","no","mono","no","18","no","white","no","yes","768","psycho","1","1","/Users/ethan/Documents/GitHub/OpenSesame/Masked repetition priming/experiment/subject-0.csv","psycho","Lentiform Loewenfeld","3.3.12","water","0","m","m","1136.4667079760693","1136.4667079760693","2","psycho","short","1024","2","48000","-16","experiment","0","even","medal","2035.6354160467163","6685.594333044719","10075.673750019632","11213.535415998194","9691.98804104235","9970.46916600084","10041.575208015274","6681.236583041027","10004.384208004922","2035.8145830105059","10075.55400003912","Masked_repetition_priming","0","1892.5099159241654","2","yes","1024"
"undefined","undefined","944.8924996540882","944.8924996540882","black","psycho","psycho","psycho","0","Con_Synth","uniform","undefined","undefined","0","2","2","2","2","2","2","2","2","0","2","Thu Oct 27 13:28:47 2022","The main experiment item","yes","Masked_repetition_priming.osexp","/Users/ethan/Documents/GitHub/OpenSesame/Masked repetition priming/experiment","no","mono","no","18","no","white","no","yes","768","psycho","2","2","/Users/ethan/Documents/GitHub/OpenSesame/Masked repetition priming/experiment/subject-0.csv","psycho","Lentiform Loewenfeld","3.3.12","gate","0","m","m","942.1675830380991","942.1675830380991","2","psycho","short","1024","2","48000","-16","experiment","0","even","gate","2035.6354160467163","11288.233916042373","14679.68150001252","15629.246875003446","14295.231958036311","14575.795291049872","14645.781958010048","11285.840083030052","14609.618250047788","2035.8145830105059","14679.562000033911","Masked_repetition_priming","0","2834.6774989622645","3","yes","1024"
"undefined","undefined","931.3286247488577","931.3286247488577","black","psycho","psycho","psycho","0","Inc_Synth_Nat","uniform","undefined","undefined","0","3","3","3","3","3","3","3","3","0","3","Thu Oct 27 13:28:47 2022","The main experiment item","yes","Masked_repetition_priming.osexp","/Users/ethan/Documents/GitHub/OpenSesame/Masked repetition priming/experiment","no","mono","no","18","no","white","no","yes","768","psycho","3","3","/Users/ethan/Documents/GitHub/OpenSesame/Masked repetition priming/experiment/subject-0.csv","psycho","Lentiform Loewenfeld","3.3.12","ladle","0","n","n","890.6370000331663","890.6370000331663","2","psycho","short","1024","2","48000","-16","experiment","0","even","gully","2035.6354160467163","15705.109666043427","19096.157416002825","19988.148750038818","18711.899000045378","18990.97675003577","19061.726000043564","15701.660125050694","19025.256749999244","2035.8145830105059","19096.00900002988","Masked_repetition_priming","0","3725.3144989954308","4","yes","1024"
"undefined","undefined","955.1778831984848","955.1778831984848","black","psycho","psycho","psycho","0","Con_Synth","uniform","undefined","undefined","0","4","4","4","4","4","4","4","4","0","4","Thu Oct 27 13:28:47 2022","The main experiment item","yes","Masked_repetition_priming.osexp","/Users/ethan/Documents/GitHub/OpenSesame/Masked repetition priming/experiment","no","mono","no","18","no","white","no","yes","768","psycho","4","4","/Users/ethan/Documents/GitHub/OpenSesame/Masked repetition priming/experiment/subject-0.csv","psycho","Lentiform Loewenfeld","3.3.12","bread","0","m","m","1050.5749169969931","1050.5749169969931","2","psycho","short","1024","2","48000","-16","experiment","0","even","bread","2035.6354160467163","20063.08908300707","23451.898458006326","24503.797416051384","23069.563125027344","23347.961416002363","23418.035958020482","20060.147125041112","23381.83370803017","2035.8145830105059","23451.779833005276","Masked_repetition_priming","0","4775.889415992424","5","yes","1024"
"undefined","undefined","913.6618470074609","913.6618470074609","black","psycho","psycho","psycho","0","Con_Nat","uniform","undefined","undefined","0","5","5","5","5","5","5","5","5","0","5","Thu Oct 27 13:28:47 2022","The main experiment item","yes","Masked_repetition_priming.osexp","/Users/ethan/Documents/GitHub/OpenSesame/Masked repetition priming/experiment","no","mono","no","18","no","white","no","yes","768","psycho","5","5","/Users/ethan/Documents/GitHub/OpenSesame/Masked repetition priming/experiment/subject-0.csv","psycho","Lentiform Loewenfeld","3.3.12","hawk","0","n","n","706.0816660523415","706.0816660523415","2","psycho","short","1024","2","48000","-16","experiment","0","even","hawk","2035.6354160467163","24576.685083040502","27966.02824999718","28673.39350003749","27583.82945804624","27861.997541040182","27932.04725004034","24574.091957998462","27895.786541048437","2035.8145830105059","27965.908500016667","Masked_repetition_priming","0","5481.971082044765","6","yes","1024"
"undefined","undefined","954.9609402976265","954.9609402976265","black","psycho","psycho","psycho","0","Inc_Nat_Synth","uniform","undefined","undefined","0","6","6","6","6","6","6","6","6","0","6","Thu Oct 27 13:28:47 2022","The main experiment item","yes","Masked_repetition_priming.osexp","/Users/ethan/Documents/GitHub/OpenSesame/Masked repetition priming/experiment","no","mono","no","18","no","white","no","yes","768","psycho","6","6","/Users/ethan/Documents/GitHub/OpenSesame/Masked repetition priming/experiment/subject-0.csv","psycho","Lentiform Loewenfeld","3.3.12","poppy","0","m","m","1202.75550003862","1202.75550003862","2","psycho","short","1024","2","48000","-16","experiment","0","even","cloth","2035.6354160467163","28745.566416007932","32133.7782079936","33337.817916006315","31751.646666030865","32029.900416033342","32100.05533299409","28742.319750017487","32063.905458024237","2035.8145830105059","32133.661750005558","Masked_repetition_priming","0","6684.726582083385","7","yes","1024"
"undefined","undefined","989.7135675128084","989.7135675128084","black","psycho","psycho","psycho","0","Con_Nat","uniform","undefined","undefined","0","7","7","7","7","7","7","7","7","0","7","Thu Oct 27 13:28:47 2022","The main experiment item","yes","Masked_repetition_priming.osexp","/Users/ethan/Documents/GitHub/OpenSesame/Masked repetition priming/experiment","no","mono","no","18","no","white","no","yes","768","psycho","7","7","/Users/ethan/Documents/GitHub/OpenSesame/Masked repetition priming/experiment/subject-0.csv","psycho","Lentiform Loewenfeld","3.3.12","soil","0","n","n","1232.9819580190815","1232.9819580190815","2","psycho","short","1024","2","48000","-16","experiment","0","even","soil","2035.6354160467163","33410.03141604597","36798.56095800642","38032.86320803454","36416.56533302739","36694.72491601482","36764.710333023686","33407.01970801456","36728.51350001292","2035.8145830105059","36798.433875024784","Masked_repetition_priming","0","7917.708540102467","8","yes","1024"
"undefined","undefined","986.7708377876422","986.7708377876422","black","psycho","psycho","psycho","0","Con_Synth","uniform","undefined","undefined","0","8","8","8","8","8","8","8","8","0","8","Thu Oct 27 13:28:47 2022","The main experiment item","yes","Masked_repetition_priming.osexp","/Users/ethan/Documents/GitHub/OpenSesame/Masked repetition priming/experiment","no","mono","no","18","no","white","no","yes","768","psycho","8","8","/Users/ethan/Documents/GitHub/OpenSesame/Masked repetition priming/experiment/subject-0.csv","psycho","Lentiform Loewenfeld","3.3.12","toast","0","m","m","963.2289999863133","963.2289999863133","2","psycho","short","1024","2","48000","-16","experiment","0","even","toast","2035.6354160467163","38104.2012910475","41493.14979102928","42457.6907500159","41110.76845804928","41389.08500003163","41459.319874993525","38102.07837499911","41422.97479102854","2035.8145830105059","41493.030708050355","Masked_repetition_priming","0","8880.93754008878","9","yes","1024"
"undefined","undefined","1008.5615332121961","1008.5615332121961","black","psycho","psycho","psycho","0","Con_Synth","uniform","undefined","undefined","0","9","9","9","9","9","9","9","9","0","9","Thu Oct 27 13:28:47 2022","The main experiment item","yes","Masked_repetition_priming.osexp","/Users/ethan/Documents/GitHub/OpenSesame/Masked repetition priming/experiment","no","mono","no","18","no","white","no","yes","768","psycho","9","9","/Users/ethan/Documents/GitHub/OpenSesame/Masked repetition priming/experiment/subject-0.csv","psycho","Lentiform Loewenfeld","3.3.12","tank","0","m","m","1204.6777920331806","1204.6777920331806","2","psycho","short","1024","2","48000","-16","experiment","0","even","tank","2035.6354160467163","42528.46016600961","45916.93666600622","47122.92024999624","45535.169500042684","45813.4154160507","45883.08645802317","42526.486375019886","45847.272791026626","2035.8145830105059","45916.81879101088","Masked_repetition_priming","0","10085.61533212196","10","yes","1024"
"undefined","undefined","982.3399431029843","982.3399431029843","black","psycho","psycho","psycho","0","Con_Synth","uniform","undefined","undefined","0","10","10","10","10","10","10","10","10","0","10","Thu Oct 27 13:28:47 2022","The main experiment item","yes","Masked_repetition_priming.osexp","/Users/ethan/Documents/GitHub/OpenSesame/Masked repetition priming/experiment","no","mono","no","18","no","white","no","yes","768","psycho","10","10","/Users/ethan/Documents/GitHub/OpenSesame/Masked repetition priming/experiment/subject-0.csv","psycho","Lentiform Loewenfeld","3.3.12","cable","0","m","m","720.1240420108661","720.1240420108661","2","psycho","short","1024","2","48000","-16","experiment","0","even","cable","2035.6354160467163","47198.999500018544","50586.70508302748","51308.10658301925","50205.44508303283","50483.30966604408","50552.83395800507","47196.80500001414","50517.12375000352","2035.8145830105059","50586.57775004394","Masked_repetition_priming","0","10805.739374132827","11","yes","1024"
"undefined","undefined","954.5293645108662","954.5293645108662","black","psycho","psycho","psycho","0","Inc_Nat_Synth","uniform","undefined","undefined","0","11","11","11","11","11","11","11","11","0","11","Thu Oct 27 13:28:47 2022","The main experiment item","yes","Masked_repetition_priming.osexp","/Users/ethan/Documents/GitHub/OpenSesame/Masked repetition priming/experiment","no","mono","no","18","no","white","no","yes","768","psycho","11","11","/Users/ethan/Documents/GitHub/OpenSesame/Masked repetition priming/experiment/subject-0.csv","psycho","Lentiform Loewenfeld","3.3.12","mice","0","m","m","648.6129999975674","648.6129999975674","2","psycho","short","1024","2","48000","-16","experiment","0","even","tools","2035.6354160467163","51379.3766660383","54768.673665996175","55418.66716602817","54386.529625044204","54664.61999999592","54734.74283301039","51376.27908302238","54698.669041041285","2035.8145830105059","54768.56433303328","Masked_repetition_priming","0","11454.352374130394","12","yes","1024"
"undefined","undefined","930.8311184733891","930.8311184733891","black","psycho","psycho","psycho","0","Con_Synth","uniform","undefined","undefined","0","12","12","12","12","12","12","12","12","0","12","Thu Oct 27 13:28:47 2022","The main experiment item","yes","Masked_repetition_priming.osexp","/Users/ethan/Documents/GitHub/OpenSesame/Masked repetition priming/experiment","no","mono","no","18","no","white","no","yes","768","psycho","12","12","/Users/ethan/Documents/GitHub/OpenSesame/Masked repetition priming/experiment/subject-0.csv","psycho","Lentiform Loewenfeld","3.3.12","mail","0","m","m","646.4521660236642","646.4521660236642","2","psycho","short","1024","2","48000","-16","experiment","0","even","mail","2035.6354160467163","55491.71983305132","58879.781000025105","59527.62241603341","58498.32166603301","58776.35000000009","58845.9125829977","55487.82633303199","58810.1870000246","2035.8145830105059","58879.66012500692","Masked_repetition_priming","0","12100.804540154058","13","yes","1024"
"undefined","undefined","922.45479750896","922.45479750896","black","psycho","psycho","psycho","0","Con_Nat","uniform","undefined","undefined","0","13","13","13","13","13","13","13","13","0","13","Thu Oct 27 13:28:47 2022","The main experiment item","yes","Masked_repetition_priming.osexp","/Users/ethan/Documents/GitHub/OpenSesame/Masked repetition priming/experiment","no","mono","no","18","no","white","no","yes","768","psycho","13","13","/Users/ethan/Documents/GitHub/OpenSesame/Masked repetition priming/experiment/subject-0.csv","psycho","Lentiform Loewenfeld","3.3.12","seed","0","n","n","813.5626249713823","813.5626249713823","2","psycho","short","1024","2","48000","-16","experiment","0","even","seed","2035.6354160467163","59598.91087503638","62987.77645803057","63802.62987501919","62605.44037504587","62884.08566603903","62953.785333025735","59595.92325001722","62917.85508301109","2035.8145830105059","62987.655291042756","Masked_repetition_priming","0","12914.36716512544","14","yes","1024"
"undefined","undefined","906.0961943430206","906.0961943430206","black","psycho","psycho","psycho","0","Inc_Nat_Synth","uniform","undefined","undefined","0","14","14","14","14","14","14","14","14","0","14","Thu Oct 27 13:28:47 2022","The main experiment item","yes","Masked_repetition_priming.osexp","/Users/ethan/Documents/GitHub/OpenSesame/Masked repetition priming/experiment","no","mono","no","18","no","white","no","yes","768","psycho","14","14","/Users/ethan/Documents/GitHub/OpenSesame/Masked repetition priming/experiment/subject-0.csv","psycho","Lentiform Loewenfeld","3.3.12","lime","0","m","m","677.075750019867","677.075750019867","2","psycho","short","1024","2","48000","-16","experiment","0","even","sofa","2035.6354160467163","63874.960000044666","67264.978583029","67943.48966603866","66882.5491660391","67161.05479100952","67231.0397910187","63871.10725004459","67194.98279102845","2035.8145830105059","67264.8573750048","Masked_repetition_priming","0","13591.442915145308","15","yes","1024"
"undefined","undefined","893.4664921362128","893.4664921362128","black","psycho","psycho","psycho","0","Con_Nat","uniform","undefined","undefined","0","15","15","15","15","15","15","15","15","0","15","Thu Oct 27 13:28:47 2022","The main experiment item","yes","Masked_repetition_priming.osexp","/Users/ethan/Documents/GitHub/OpenSesame/Masked repetition priming/experiment","no","mono","no","18","no","white","no","yes","768","psycho","15","15","/Users/ethan/Documents/GitHub/OpenSesame/Masked repetition priming/experiment/subject-0.csv","psycho","Lentiform Loewenfeld","3.3.12","worm","0","n","n","704.0209590340964","704.0209590340964","2","psycho","short","1024","2","48000","-16","experiment","0","even","worm","2035.6354160467163","68017.43012503721","71407.96916600084","72113.4578330093","71024.8177080066","71303.64070803626","71373.80883301375","68014.54500004184","71337.42670802167","2035.8145830105059","71407.81250002328","Masked_repetition_priming","0","14295.463874179404","16","yes","1024"
"undefined","undefined","928.2490024240414","928.2490024240414","black","psycho","psycho","psycho","0","Con_Nat","uniform","undefined","undefined","0","16","16","16","16","16","16","16","16","0","16","Thu Oct 27 13:28:47 2022","The main experiment item","yes","Masked_repetition_priming.osexp","/Users/ethan/Documents/GitHub/OpenSesame/Masked repetition priming/experiment","no","mono","no","18","no","white","no","yes","768","psycho","16","16","/Users/ethan/Documents/GitHub/OpenSesame/Masked repetition priming/experiment/subject-0.csv","psycho","Lentiform Loewenfeld","3.3.12","daisy","0","n","n","1484.7691670292988","1484.7691670292988","2","psycho","short","1024","2","48000","-16","experiment","0","even","daisy","2035.6354160467163","72187.21616599942","75576.12133299699","77062.38358304836","75194.25916601904","75472.66245802166","75542.28308302118","72184.08054101747","75506.45541603444","2035.8145830105059","75575.99875004962","Masked_repetition_priming","0","15780.233041208703","17","yes","1024"
"undefined","undefined","922.6124073417546","922.6124073417546","black","psycho","psycho","psycho","0","Inc_Synth_Nat","uniform","undefined","undefined","0","17","17","17","17","17","17","17","17","0","17","Thu Oct 27 13:28:47 2022","The main experiment item","yes","Masked_repetition_priming.osexp","/Users/ethan/Documents/GitHub/OpenSesame/Masked repetition priming/experiment","no","mono","no","18","no","white","no","yes","768","psycho","17","17","/Users/ethan/Documents/GitHub/OpenSesame/Masked repetition priming/experiment/subject-0.csv","psycho","Lentiform Loewenfeld","3.3.12","wharf","0","n","n","826.7902909428813","826.7902909428813","2","psycho","short","1024","2","48000","-16","experiment","0","even","twig","2035.6354160467163","77135.50091604702","80524.09400005126","81352.26641601184","80142.277750012","80419.86558301141","80490.13862502761","77132.1547080297","80453.82749999408","2035.8145830105059","80523.96750001935","Masked_repetition_priming","0","16607.023332151584","18","yes","1024"
"undefined","undefined","918.512274060815","918.512274060815","black","psycho","psycho","psycho","0","Inc_Synth_Nat","uniform","undefined","undefined","0","18","18","18","18","18","18","18","18","0","18","Thu Oct 27 13:28:47 2022","The main experiment item","yes","Masked_repetition_priming.osexp","/Users/ethan/Documents/GitHub/OpenSesame/Masked repetition priming/experiment","no","mono","no","18","no","white","no","yes","768","psycho","18","18","/Users/ethan/Documents/GitHub/OpenSesame/Masked repetition priming/experiment/subject-0.csv","psycho","Lentiform Loewenfeld","3.3.12","sewer","0","n","n","844.7098750039004","844.7098750039004","2","psycho","short","1024","2","48000","-16","experiment","0","even","coral","2035.6354160467163","81423.83879103","84812.27870803559","85658.40925002703","84430.46783300815","84708.6470000213","84778.25204102555","81420.49920803402","84742.3887080513","2035.8145830105059","84812.1590000228","Masked_repetition_priming","0","17451.733207155485","19","yes","1024"
"undefined","undefined","911.6580937086837","911.6580937086837","black","psycho","psycho","psycho","0","Con_Nat","uniform","undefined","undefined","0","19","19","19","19","19","19","19","19","0","19","Thu Oct 27 13:28:47 2022","The main experiment item","yes","Masked_repetition_priming.osexp","/Users/ethan/Documents/GitHub/OpenSesame/Masked repetition priming/experiment","no","mono","no","18","no","white","no","yes","768","psycho","19","19","/Users/ethan/Documents/GitHub/OpenSesame/Masked repetition priming/experiment/subject-0.csv","psycho","Lentiform Loewenfeld","3.3.12","frog","0","n","n","781.42866701819","781.42866701819","2","psycho","short","1024","2","48000","-16","experiment","0","even","frog","2035.6354160467163","85730.61012499966","89119.5534580038","89902.3616250488","88737.70704102935","89016.01783302613","89085.73466603411","85727.07695805002","89049.9510410009","2035.8145830105059","89119.42783300765","Masked_repetition_priming","0","18233.161874173675","20","yes","1024"
"undefined","undefined","904.214942436998","904.214942436998","black","psycho","psycho","psycho","0","Inc_Nat_Synth","uniform","undefined","undefined","0","20","20","20","20","20","20","20","20","0","20","Thu Oct 27 13:28:47 2022","The main experiment item","yes","Masked_repetition_priming.osexp","/Users/ethan/Documents/GitHub/OpenSesame/Masked repetition priming/experiment","no","mono","no","18","no","white","no","yes","768","psycho","20","20","/Users/ethan/Documents/GitHub/OpenSesame/Masked repetition priming/experiment/subject-0.csv","psycho","Lentiform Loewenfeld","3.3.12","toad","0","m","m","755.3519170032814","755.3519170032814","2","psycho","short","1024","2","48000","-16","experiment","0","even","glove","2035.6354160467163","89973.87520800112","93360.79233302735","94117.428416037","92979.55879103392","93257.53470801283","93326.99229102582","89970.34216602333","93291.37458303012","2035.8145830105059","93360.67550000735","Masked_repetition_priming","0","18988.513791176956","21","yes","1024"
"undefined","undefined","911.7617461888585","911.7617461888585","black","psycho","psycho","psycho","0","Inc_Nat_Synth","uniform","undefined","undefined","0","21","21","21","21","21","21","21","21","0","21","Thu Oct 27 13:28:47 2022","The main experiment item","yes","Masked_repetition_priming.osexp","/Users/ethan/Documents/GitHub/OpenSesame/Masked repetition priming/experiment","no","mono","no","18","no","white","no","yes","768","psycho","21","21","/Users/ethan/Documents/GitHub/OpenSesame/Masked repetition priming/experiment/subject-0.csv","psycho","Lentiform Loewenfeld","3.3.12","berry","0","m","m","1070.2446249779314","1070.2446249779314","2","psycho","short","1024","2","48000","-16","experiment","0","even","plaza","2035.6354160467163","94188.16587503534","97576.36241603177","98648.01562501816","97194.77058300981","97472.7873330121","97542.52008302137","94185.31533301575","97506.37416599784","2035.8145830105059","97576.24341599876","Masked_repetition_priming","0","20058.758416154888","22","yes","1024"
"undefined","undefined","910.1280144835903","910.1280144835903","black","psycho","psycho","psycho","0","Inc_Nat_Synth","uniform","undefined","undefined","0","22","22","22","22","22","22","22","22","0","22","Thu Oct 27 13:28:47 2022","The main experiment item","yes","Masked_repetition_priming.osexp","/Users/ethan/Documents/GitHub/OpenSesame/Masked repetition priming/experiment","no","mono","no","18","no","white","no","yes","768","psycho","22","22","/Users/ethan/Documents/GitHub/OpenSesame/Masked repetition priming/experiment/subject-0.csv","psycho","Lentiform Loewenfeld","3.3.12","leaf","0","m","m","874.18591696769","874.18591696769","2","psycho","short","1024","2","48000","-16","experiment","0","even","coin","2035.6354160467163","98719.75870802999","102108.20916603552","102983.7934160023","101726.41866601771","102004.15387499379","102074.1058330168","98717.10262499982","102038.01954101073","2035.8145830105059","102108.05974999676","Masked_repetition_priming","0","20932.944333122578","23","yes","1024"
"undefined","undefined","904.8179236294042","904.8179236294042","black","psycho","psycho","psycho","0","Inc_Synth_Nat","uniform","undefined","undefined","0","23","23","23","23","23","23","23","23","0","23","Thu Oct 27 13:28:47 2022","The main experiment item","yes","Masked_repetition_priming.osexp","/Users/ethan/Documents/GitHub/OpenSesame/Masked repetition priming/experiment","no","mono","no","18","no","white","no","yes","768","psycho","23","23","/Users/ethan/Documents/GitHub/OpenSesame/Masked repetition priming/experiment/subject-0.csv","psycho","Lentiform Loewenfeld","3.3.12","ruler","0","n","n","782.6858339831233","782.6858339831233","2","psycho","short","1024","2","48000","-16","experiment","0","even","pansy","2035.6354160467163","103055.8200830128","106443.31141602015","107227.30633302126","106061.99704104802","106339.72833299777","106409.45883304812","103052.8456660104","106373.52662504418","2035.8145830105059","106443.19583300967","Masked_repetition_priming","0","21715.6301671057","24","yes","1024"
"undefined","undefined","905.3849233640358","905.3849233640358","black","psycho","psycho","psycho","0","Con_Synth","uniform","undefined","undefined","0","24","24","24","24","24","24","24","24","0","24","Thu Oct 27 13:28:47 2022","The main experiment item","yes","Masked_repetition_priming.osexp","/Users/ethan/Documents/GitHub/OpenSesame/Masked repetition priming/experiment","no","mono","no","18","no","white","no","yes","768","psycho","24","24","/Users/ethan/Documents/GitHub/OpenSesame/Masked repetition priming/experiment/subject-0.csv","psycho","Lentiform Loewenfeld","3.3.12","drug","0","m","m","918.9929169951938","918.9929169951938","2","psycho","short","1024","2","48000","-16","experiment","0","even","drug","2035.6354160467163","107298.96225000266","110687.1256660088","111607.49179101549","110305.3729160456","110583.77454103902","110653.4402500256","107295.5105000292","110617.5650000223","2035.8145830105059","110687.01004103059","Masked_repetition_priming","0","22634.623084100895","25","yes","1024"
"undefined","undefined","897.2905385039317","897.2905385039317","black","psycho","psycho","psycho","0","Inc_Nat_Synth","uniform","undefined","undefined","0","25","25","25","25","25","25","25","25","0","25","Thu Oct 27 13:28:47 2022","The main experiment item","yes","Masked_repetition_priming.osexp","/Users/ethan/Documents/GitHub/OpenSesame/Masked repetition priming/experiment","no","mono","no","18","no","white","no","yes","768","psycho","25","25","/Users/ethan/Documents/GitHub/OpenSesame/Masked repetition priming/experiment/subject-0.csv","psycho","Lentiform Loewenfeld","3.3.12","fern","0","m","m","694.9309170013294","694.9309170013294","2","psycho","short","1024","2","48000","-16","experiment","0","even","café","2035.6354160467163","111679.6686660382","115067.19366600737","115763.52708303602","114685.42279105168","114963.54037499987","115033.26687501976","111675.94416602515","114997.24479101133","2035.8145830105059","115067.07108300179","Masked_repetition_priming","0","23329.554001102224","26","yes","1024"
"undefined","undefined","893.0725478933675","893.0725478933675","black","psycho","psycho","psycho","0","Inc_Synth_Nat","uniform","undefined","undefined","0","26","26","26","26","26","26","26","26","0","26","Thu Oct 27 13:28:47 2022","The main experiment item","yes","Masked_repetition_priming.osexp","/Users/ethan/Documents/GitHub/OpenSesame/Masked repetition priming/experiment","no","mono","no","18","no","white","no","yes","768","psycho","26","26","/Users/ethan/Documents/GitHub/OpenSesame/Masked repetition priming/experiment/subject-0.csv","psycho","Lentiform Loewenfeld","3.3.12","arena","0","n","n","783.4047920187004","783.4047920187004","2","psycho","short","1024","2","48000","-16","experiment","0","even","vine","2035.6354160467163","115834.37875000527","119222.33508300269","120007.14904104825","118840.63475002768","119118.95241599996","119188.32366605056","115831.72795805149","119152.63716602931","2035.8145830105059","119222.21191599965","Masked_repetition_priming","0","24112.958793120924","27","yes","1024"
"undefined","undefined","894.0386131476511","894.0386131476511","black","psycho","psycho","psycho","0","Inc_Nat_Synth","uniform","undefined","undefined","0","27","27","27","27","27","27","27","27","0","27","Thu Oct 27 13:28:47 2022","The main experiment item","yes","Masked_repetition_priming.osexp","/Users/ethan/Documents/GitHub/OpenSesame/Masked repetition priming/experiment","no","mono","no","18","no","white","no","yes","768","psycho","27","27","/Users/ethan/Documents/GitHub/OpenSesame/Masked repetition priming/experiment/subject-0.csv","psycho","Lentiform Loewenfeld","3.3.12","grape","0","m","m","920.1223750133067","920.1223750133067","2","psycho","short","1024","2","48000","-16","experiment","0","even","shelf","2035.6354160467163","120078.959416016","123466.79500001483","124388.29458301188","123084.75112501765","123363.04412502795","123432.9381660209","120075.26783301728","123396.9252500101","2035.8145830105059","123466.67870803503","Masked_repetition_priming","0","25033.08116813423","28","yes","1024"
"undefined","undefined","890.236821900732","890.236821900732","black","psycho","psycho","psycho","0","Con_Synth","uniform","undefined","undefined","0","28","28","28","28","28","28","28","28","0","28","Thu Oct 27 13:28:47 2022","The main experiment item","yes","Masked_repetition_priming.osexp","/Users/ethan/Documents/GitHub/OpenSesame/Masked repetition priming/experiment","no","mono","no","18","no","white","no","yes","768","psycho","28","28","/Users/ethan/Documents/GitHub/OpenSesame/Masked repetition priming/experiment/subject-0.csv","psycho","Lentiform Loewenfeld","3.3.12","bike","0","m","m","783.7866669869982","783.7866669869982","2","psycho","short","1024","2","48000","-16","experiment","0","even","bike","2035.6354160467163","124459.95595800923","127848.36783300852","128633.51637503365","127466.4447500254","127744.72575000254","127814.51812502928","124456.94683300098","127778.5164579982","2035.8145830105059","127848.25241600629","Masked_repetition_priming","0","25816.86783512123","29","yes","1024"
"undefined","undefined","882.6846736716107","882.6846736716107","black","psycho","psycho","psycho","0","Inc_Synth_Nat","uniform","undefined","undefined","0","29","29","29","29","29","29","29","29","0","29","Thu Oct 27 13:28:47 2022","The main experiment item","yes","Masked_repetition_priming.osexp","/Users/ethan/Documents/GitHub/OpenSesame/Masked repetition priming/experiment","no","mono","no","18","no","white","no","yes","768","psycho","29","29","/Users/ethan/Documents/GitHub/OpenSesame/Masked repetition priming/experiment/subject-0.csv","psycho","Lentiform Loewenfeld","3.3.12","silo","0","n","n","663.6723750270903","663.6723750270903","2","psycho","short","1024","2","48000","-16","experiment","0","even","otter","2035.6354160467163","128705.46095800819","132093.01387501182","132758.00270802574","131711.6816660273","131989.89637504565","132059.3222080497","128701.72133302549","132023.5816250206","2035.8145830105059","132092.90200000396","Masked_repetition_priming","0","26480.54021014832","30","yes","1024"
"undefined","undefined","875.1495309726095","875.1495309726095","black","psycho","psycho","psycho","0","Con_Nat","uniform","undefined","undefined","0","30","30","30","30","30","30","30","30","0","30","Thu Oct 27 13:28:47 2022","The main experiment item","yes","Masked_repetition_priming.osexp","/Users/ethan/Documents/GitHub/OpenSesame/Masked repetition priming/experiment","no","mono","no","18","no","white","no","yes","768","psycho","30","30","/Users/ethan/Documents/GitHub/OpenSesame/Masked repetition priming/experiment/subject-0.csv","psycho","Lentiform Loewenfeld","3.3.12","creek","0","n","n","649.0952500025742","649.0952500025742","2","psycho","short","1024","2","48000","-16","experiment","0","even","creek","2035.6354160467163","132828.47170799505","136216.72908304026","136867.2179580317","135835.0402500364","136113.20283304667","136182.84633301664","132826.13458303967","136147.08575000986","2035.8145830105059","136216.60720801447","Masked_repetition_priming","0","27129.635460150894","31","yes","1024"
"undefined","undefined","874.6670742548304","874.6670742548304","black","psycho","psycho","psycho","0","Con_Synth","uniform","undefined","undefined","0","31","31","31","31","31","31","31","31","0","31","Thu Oct 27 13:28:47 2022","The main experiment item","yes","Masked_repetition_priming.osexp","/Users/ethan/Documents/GitHub/OpenSesame/Masked repetition priming/experiment","no","mono","no","18","no","white","no","yes","768","psycho","31","31","/Users/ethan/Documents/GitHub/OpenSesame/Masked repetition priming/experiment/subject-0.csv","psycho","Lentiform Loewenfeld","3.3.12","coat","0","m","m","859.710916003678","859.710916003678","2","psycho","short","1024","2","48000","-16","experiment","0","even","coat","2035.6354160467163","136938.40291601373","140326.23700000113","141187.27237504208","139944.6724160225","140223.0037500267","140292.4896660261","136934.9885410047","140256.73916604137","2035.8145830105059","140326.11566601554","Masked_repetition_priming","0","27989.34637615457","32","yes","1024"
"undefined","undefined","867.8349671853622","867.8349671853622","black","psycho","psycho","psycho","0","Inc_Synth_Nat","uniform","undefined","undefined","0","32","32","32","32","32","32","32","32","0","32","Thu Oct 27 13:28:47 2022","The main experiment item","yes","Masked_repetition_priming.osexp","/Users/ethan/Documents/GitHub/OpenSesame/Masked repetition priming/experiment","no","mono","no","18","no","white","no","yes","768","psycho","32","32","/Users/ethan/Documents/GitHub/OpenSesame/Masked repetition priming/experiment/subject-0.csv","psycho","Lentiform Loewenfeld","3.3.12","spade","0","n","n","649.2075409623794","649.2075409623794","2","psycho","short","1024","2","48000","-16","experiment","0","even","llama","2035.6354160467163","141258.06991604622","144646.249750047","145296.82645801222","144264.44691600045","144542.90475003654","144612.44754103245","141255.04625000758","144576.6502500046","2035.8145830105059","144646.1361250258","Masked_repetition_priming","0","28638.55391711695","33","yes","1024"
"undefined","undefined","865.8321311214582","865.8321311214582","black","psycho","psycho","psycho","0","Inc_Nat_Synth","uniform","undefined","undefined","0","33","33","33","33","33","33","33","33","0","33","Thu Oct 27 13:28:47 2022","The main experiment item","yes","Masked_repetition_priming.osexp","/Users/ethan/Documents/GitHub/OpenSesame/Masked repetition priming/experiment","no","mono","no","18","no","white","no","yes","768","psycho","33","33","/Users/ethan/Documents/GitHub/OpenSesame/Masked repetition priming/experiment/subject-0.csv","psycho","Lentiform Loewenfeld","3.3.12","finch","0","m","m","799.7385410126299","799.7385410126299","2","psycho","short","1024","2","48000","-16","experiment","0","even","spoon","2035.6354160467163","145368.2105410262","148756.67299999623","149557.8344160458","148374.66229102574","148653.11558300164","148722.87654102547","145364.84687501797","148686.89958303003","2035.8145830105059","148756.55579101294","Masked_repetition_priming","0","29438.29245812958","34","yes","1024"
"undefined","undefined","863.0344083466168","863.0344083466168","black","psycho","psycho","psycho","0","Inc_Synth_Nat","uniform","undefined","undefined","0","34","34","34","34","34","34","34","34","0","34","Thu Oct 27 13:28:47 2022","The main experiment item","yes","Masked_repetition_priming.osexp","/Users/ethan/Documents/GitHub/OpenSesame/Masked repetition priming/experiment","no","mono","no","18","no","white","no","yes","768","psycho","34","34","/Users/ethan/Documents/GitHub/OpenSesame/Masked repetition priming/experiment/subject-0.csv","psycho","Lentiform Loewenfeld","3.3.12","rake","0","n","n","767.9118340020068","767.9118340020068","2","psycho","short","1024","2","48000","-16","experiment","0","even","husky","2035.6354160467163","149629.4417080353","153017.82391604502","153787.1008750517","152635.85062499624","152914.37729104655","152984.03383302502","149626.03670801036","152948.20000004256","2035.8145830105059","153017.70545804175","Masked_repetition_priming","0","30206.204292131588","35","yes","1024"
"undefined","undefined","864.1814722262401","864.1814722262401","black","psycho","psycho","psycho","0","Con_Synth","uniform","undefined","undefined","0","35","35","35","35","35","35","35","35","0","35","Thu Oct 27 13:28:47 2022","The main experiment item","yes","Masked_repetition_priming.osexp","/Users/ethan/Documents/GitHub/OpenSesame/Masked repetition priming/experiment","no","mono","no","18","no","white","no","yes","768","psycho","35","35","/Users/ethan/Documents/GitHub/OpenSesame/Masked repetition priming/experiment/subject-0.csv","psycho","Lentiform Loewenfeld","3.3.12","doll","0","m","m","904.328708013054","904.328708013054","2","psycho","short","1024","2","48000","-16","experiment","0","even","doll","2035.6354160467163","153859.00954104727","157246.82500003837","158152.63962501194","156865.09320803452","157143.54537503095","157213.1095410441","153855.3108330234","157177.27258300874","2035.8145830105059","157246.6942910105","Masked_repetition_priming","0","31110.533000144642","36","yes","1024"
"undefined","undefined","891.6161373820836","891.6161373820836","black","psycho","psycho","psycho","0","Inc_Synth_Nat","uniform","undefined","undefined","0","36","36","36","36","36","36","36","36","0","36","Thu Oct 27 13:28:47 2022","The main experiment item","yes","Masked_repetition_priming.osexp","/Users/ethan/Documents/GitHub/OpenSesame/Masked repetition priming/experiment","no","mono","no","18","no","white","no","yes","768","psycho","36","36","/Users/ethan/Documents/GitHub/OpenSesame/Masked repetition priming/experiment/subject-0.csv","psycho","Lentiform Loewenfeld","3.3.12","sash","0","n","n","1879.2640829924494","1879.2640829924494","2","psycho","short","1024","2","48000","-16","experiment","0","even","dingo","2035.6354160467163","158223.73258305015","161611.602375051","163492.24400002277","161230.15712504275","161508.39695800096","161577.88979104953","158220.79000005033","161542.0896250289","2035.8145830105059","161611.48958303966","Masked_repetition_priming","0","32989.79708313709","37","yes","1024"
"undefined","undefined","887.9380383724837","887.9380383724837","black","psycho","psycho","psycho","0","Con_Nat","uniform","undefined","undefined","0","37","37","37","37","37","37","37","37","0","37","Thu Oct 27 13:28:47 2022","The main experiment item","yes","Masked_repetition_priming.osexp","/Users/ethan/Documents/GitHub/OpenSesame/Masked repetition priming/experiment","no","mono","no","18","no","white","no","yes","768","psycho","37","37","/Users/ethan/Documents/GitHub/OpenSesame/Masked repetition priming/experiment/subject-0.csv","psycho","Lentiform Loewenfeld","3.3.12","cave","0","m","m","751.8483750172891","751.8483750172891","2","psycho","short","1024","2","48000","-16","experiment","0","even","cave","2035.6354160467163","163564.0606660163","166953.35679099662","167706.62070804974","166570.74533303967","166849.51854101382","166919.30112504633","163561.6395410034","166883.15679103835","2035.8145830105059","166953.2304580207","Masked_repetition_priming","0","33741.64545815438","38","yes","1024"
"undefined","undefined","893.390780977475","893.390780977475","black","psycho","psycho","psycho","0","Con_Synth","uniform","undefined","undefined","0","38","38","38","38","38","38","38","38","0","38","Thu Oct 27 13:28:47 2022","The main experiment item","yes","Masked_repetition_priming.osexp","/Users/ethan/Documents/GitHub/OpenSesame/Masked repetition priming/experiment","no","mono","no","18","no","white","no","yes","768","psycho","38","38","/Users/ethan/Documents/GitHub/OpenSesame/Masked repetition priming/experiment/subject-0.csv","psycho","Lentiform Loewenfeld","3.3.12","rope","0","m","m","1100.594999967143","1100.594999967143","2","psycho","short","1024","2","48000","-16","experiment","0","even","rope","2035.6354160467163","167778.12004100997","171165.63862503972","172267.64529099455","170784.14691600483","171062.19300004886","171131.78600004176","167774.9857500312","171095.9430000512","2035.8145830105059","171165.52162502194","Masked_repetition_priming","0","34842.24045812152","39","yes","1024"
"undefined","undefined","892.8702364530182","892.8702364530182","black","psycho","psycho","psycho","0","Inc_Synth_Nat","uniform","undefined","undefined","0","39","39","39","39","39","39","39","39","0","39","Thu Oct 27 13:28:47 2022","The main experiment item","yes","Masked_repetition_priming.osexp","/Users/ethan/Documents/GitHub/OpenSesame/Masked repetition priming/experiment","no","mono","no","18","no","white","no","yes","768","psycho","39","39","/Users/ethan/Documents/GitHub/OpenSesame/Masked repetition priming/experiment/subject-0.csv","psycho","Lentiform Loewenfeld","3.3.12","torch","0","n","n","872.5689999992028","872.5689999992028","2","psycho","short","1024","2","48000","-16","experiment","0","even","chimp","2035.6354160467163","172338.80387502722","175727.942041005","176601.88550001476","175345.33541603014","175623.85650002398","175694.04204102466","172336.36112499516","175657.7868750319","2035.8145830105059","175727.8230410302","Masked_repetition_priming","0","35714.809458120726","40","yes","1024"
"undefined","undefined","889.8635142221592","889.8635142221592","black","psycho","psycho","psycho","0","Inc_Nat_Synth","uniform","undefined","undefined","0","40","40","40","40","40","40","40","40","0","40","Thu Oct 27 13:28:47 2022","The main experiment item","yes","Masked_repetition_priming.osexp","/Users/ethan/Documents/GitHub/OpenSesame/Masked repetition priming/experiment","no","mono","no","18","no","white","no","yes","768","psycho","40","40","/Users/ethan/Documents/GitHub/OpenSesame/Masked repetition priming/experiment/subject-0.csv","psycho","Lentiform Loewenfeld","3.3.12","peach","0","m","m","769.5946249878034","769.5946249878034","2","psycho","short","1024","2","48000","-16","experiment","0","even","shed","2035.6354160467163","176672.93379100738","180060.71887502912","180831.71533304267","179679.16095803957","179957.29645801475","180027.01370802242","176670.22700002417","179991.06262502028","2035.8145830105059","180060.59541599825","Masked_repetition_priming","0","36484.40408310853","41","yes","1024"
"undefined","undefined","886.281374003461","886.281374003461","black","psycho","psycho","psycho","0","Con_Nat","uniform","undefined","undefined","0","41","41","41","41","41","41","41","41","0","41","Thu Oct 27 13:28:47 2022","The main experiment item","yes","Masked_repetition_priming.osexp","/Users/ethan/Documents/GitHub/OpenSesame/Masked repetition priming/experiment","no","mono","no","18","no","white","no","yes","768","psycho","41","41","/Users/ethan/Documents/GitHub/OpenSesame/Masked repetition priming/experiment/subject-0.csv","psycho","Lentiform Loewenfeld","3.3.12","deer","0","n","n","739.413625036832","739.413625036832","2","psycho","short","1024","2","48000","-16","experiment","0","even","deer","2035.6354160467163","180902.74516603677","184290.734625014","185031.5832910128","183908.9709999971","184187.1679580072","184256.77391601494","180899.74854100728","184220.95004102448","2035.8145830105059","184290.56116600987","Masked_repetition_priming","0","37223.81770814536","42","yes","1024"
"undefined","undefined","881.7028313994321","881.7028313994321","black","psycho","psycho","psycho","0","Con_Nat","uniform","undefined","undefined","0","42","42","42","42","42","42","42","42","0","42","Thu Oct 27 13:28:47 2022","The main experiment item","yes","Masked_repetition_priming.osexp","/Users/ethan/Documents/GitHub/OpenSesame/Masked repetition priming/experiment","no","mono","no","18","no","white","no","yes","768","psycho","42","42","/Users/ethan/Documents/GitHub/OpenSesame/Masked repetition priming/experiment/subject-0.csv","psycho","Lentiform Loewenfeld","3.3.12","puppy","0","n","n","689.404042030219","689.404042030219","2","psycho","short","1024","2","48000","-16","experiment","0","even","puppy","2035.6354160467163","185106.90950002754","188496.78383301944","189187.63116601622","188113.52029099362","188392.58745801635","188462.98525005113","185102.52499999478","188426.85104103293","2035.8145830105059","188496.60675000632","Masked_repetition_priming","0","37913.22175017558","43","yes","1024"
"undefined","undefined","879.1070965949489","879.1070965949489","black","psycho","psycho","psycho","0","Inc_Nat_Synth","uniform","undefined","undefined","0","43","43","43","43","43","43","43","43","0","43","Thu Oct 27 13:28:47 2022","The main experiment item","yes","Masked_repetition_priming.osexp","/Users/ethan/Documents/GitHub/OpenSesame/Masked repetition priming/experiment","no","mono","no","18","no","white","no","yes","768","psycho","43","43","/Users/ethan/Documents/GitHub/OpenSesame/Masked repetition priming/experiment/subject-0.csv","psycho","Lentiform Loewenfeld","3.3.12","cobra","0","m","m","767.4905000021681","767.4905000021681","2","psycho","short","1024","2","48000","-16","experiment","0","even","razor","2035.6354160467163","189259.64508304605","192648.99033302208","193418.01150003448","192266.41216600547","192545.35195801873","192615.11700000847","189256.15779100917","192579.30174999638","2035.8145830105059","192648.869208002","Masked_repetition_priming","0","38680.71225017775","44","yes","1024"
"undefined","undefined","884.966431493457","884.966431493457","black","psycho","psycho","psycho","0","Con_Nat","uniform","undefined","undefined","0","44","44","44","44","44","44","44","44","0","44","Thu Oct 27 13:28:47 2022","The main experiment item","yes","Masked_repetition_priming.osexp","/Users/ethan/Documents/GitHub/OpenSesame/Masked repetition priming/experiment","no","mono","no","18","no","white","no","yes","768","psycho","44","44","/Users/ethan/Documents/GitHub/OpenSesame/Masked repetition priming/experiment/subject-0.csv","psycho","Lentiform Loewenfeld","3.3.12","whale","0","n","n","1142.7771670278162","1142.7771670278162","2","psycho","short","1024","2","48000","-16","experiment","0","even","whale","2035.6354160467163","193489.72441599471","196878.2387910178","198022.47508300934","196496.33679102408","196774.83358304016","196844.51775002526","193486.70075001428","196808.45987499924","2035.8145830105059","196878.12225002563","Masked_repetition_priming","0","39823.489417205565","45","yes","1024"
"undefined","undefined","881.7193161344419","881.7193161344419","black","psycho","psycho","psycho","0","Con_Nat","uniform","undefined","undefined","0","45","45","45","45","45","45","45","45","0","45","Thu Oct 27 13:28:47 2022","The main experiment item","yes","Masked_repetition_priming.osexp","/Users/ethan/Documents/GitHub/OpenSesame/Masked repetition priming/experiment","no","mono","no","18","no","white","no","yes","768","psycho","45","45","/Users/ethan/Documents/GitHub/OpenSesame/Masked repetition priming/experiment/subject-0.csv","psycho","Lentiform Loewenfeld","3.3.12","goose","0","n","n","735.5991249787621","735.5991249787621","2","psycho","short","1024","2","48000","-16","experiment","0","even","goose","2035.6354160467163","198094.69483303837","201485.5987080373","202222.70158299943","201101.31066601025","201380.4069160251","201451.30483299727","198091.44512499915","201414.63366604876","2035.8145830105059","201485.43154104846","Masked_repetition_priming","0","40559.08854218433","46","yes","1024"
"undefined","undefined","878.0006471738973","878.0006471738973","black","psycho","psycho","psycho","0","Inc_Nat_Synth","uniform","undefined","undefined","0","46","46","46","46","46","46","46","46","0","46","Thu Oct 27 13:28:47 2022","The main experiment item","yes","Masked_repetition_priming.osexp","/Users/ethan/Documents/GitHub/OpenSesame/Masked repetition priming/experiment","no","mono","no","18","no","white","no","yes","768","psycho","46","46","/Users/ethan/Documents/GitHub/OpenSesame/Masked repetition priming/experiment/subject-0.csv","psycho","Lentiform Loewenfeld","3.3.12","camel","0","m","m","706.9418749888428","706.9418749888428","2","psycho","short","1024","2","48000","-16","experiment","0","even","bench","2035.6354160467163","202294.4802500424","205683.51937504485","206391.92029100377","205301.0920410161","205579.3063750025","205649.6010000119","202290.90166604146","205613.08366601588","2035.8145830105059","205683.39587503579","Masked_repetition_priming","0","41266.03041717317","47","yes","1024"
"undefined","undefined","873.5516310868358","873.5516310868358","black","psycho","psycho","psycho","0","Con_Synth","uniform","undefined","undefined","0","47","47","47","47","47","47","47","47","0","47","Thu Oct 27 13:28:47 2022","The main experiment item","yes","Masked_repetition_priming.osexp","/Users/ethan/Documents/GitHub/OpenSesame/Masked repetition priming/experiment","no","mono","no","18","no","white","no","yes","768","psycho","47","47","/Users/ethan/Documents/GitHub/OpenSesame/Masked repetition priming/experiment/subject-0.csv","psycho","Lentiform Loewenfeld","3.3.12","sword","0","n","n","664.4478749949485","664.4478749949485","2","psycho","short","1024","2","48000","-16","experiment","0","even","sword","2035.6354160467163","206463.20587501395","209851.14616603823","210516.99970802292","209469.77412502747","209747.65862501226","209817.3692499986","206460.19108302426","209781.5488750348","2035.8145830105059","209851.02529102005","Masked_repetition_priming","0","41930.47829216812","48","yes","1024"
"undefined","undefined","896.5415944112465","896.5415944112465","black","psycho","psycho","psycho","0","Con_Synth","uniform","undefined","undefined","0","48","48","48","48","48","48","48","48","0","48","Thu Oct 27 13:28:47 2022","The main experiment item","yes","Masked_repetition_priming.osexp","/Users/ethan/Documents/GitHub/OpenSesame/Masked repetition priming/experiment","no","mono","no","18","no","white","no","yes","768","psycho","48","48","/Users/ethan/Documents/GitHub/OpenSesame/Masked repetition priming/experiment/subject-0.csv","psycho","Lentiform Loewenfeld","3.3.12","tower","0","None","None","2000.0598339829594","2000.0598339829594","2","psycho","short","1024","2","48000","-16","experiment","0","even","tower","2035.6354160467163","210587.52141601872","213975.57716601295","215975.90075002518","213594.05270800926","213871.8502499978","213941.81650003884","210584.37991602113","213905.5946660228","2035.8145830105059","213975.4546660115","Masked_repetition_priming","0","43930.53812615108","49","yes","1024"
"undefined","undefined","895.7822891825344","895.7822891825344","black","psycho","psycho","psycho","0","Inc_Nat_Synth","uniform","undefined","undefined","0","49","49","49","49","49","49","49","49","0","49","Thu Oct 27 13:28:47 2022","The main experiment item","yes","Masked_repetition_priming.osexp","/Users/ethan/Documents/GitHub/OpenSesame/Masked repetition priming/experiment","no","mono","no","18","no","white","no","yes","768","psycho","49","49","/Users/ethan/Documents/GitHub/OpenSesame/Masked repetition priming/experiment/subject-0.csv","psycho","Lentiform Loewenfeld","3.3.12","crow","0","m","m","858.5763329756446","858.5763329756446","2","psycho","short","1024","2","48000","-16","experiment","0","even","yacht","2035.6354160467163","216047.79008304467","219436.54462503036","220296.378250001","219054.24762499752","219332.9764160444","219402.69650000846","216044.22083304962","219366.6949160397","2035.8145830105059","219436.41962500988","Masked_repetition_priming","0","44789.11445912672","50","yes","1024"
"undefined","undefined","890.0790335131152","890.0790335131152","black","psycho","psycho","psycho","0","Con_Nat","uniform","undefined","undefined","0","50","50","50","50","50","50","50","50","0","50","Thu Oct 27 13:28:47 2022","The main experiment item","yes","Masked_repetition_priming.osexp","/Users/ethan/Documents/GitHub/OpenSesame/Masked repetition priming/experiment","no","mono","no","18","no","white","no","yes","768","psycho","50","50","/Users/ethan/Documents/GitHub/OpenSesame/Masked repetition priming/experiment/subject-0.csv","psycho","Lentiform Loewenfeld","3.3.12","grass","0","n","n","604.9162500421517","604.9162500421517","2","psycho","short","1024","2","48000","-16","experiment","0","even","grass","2035.6354160467163","220367.234208039","223755.336000002","224361.67012504302","223373.43954102835","223651.27362502972","223721.4221250033","220364.29450003197","223685.05212501623","2035.8145830105059","223755.21158304764","Masked_repetition_priming","0","45394.030709168874","51","yes","1024"
"undefined","undefined","893.7960761384322","893.7960761384322","black","psycho","psycho","psycho","0","Inc_Synth_Nat","uniform","undefined","undefined","0","51","51","51","51","51","51","51","51","0","51","Thu Oct 27 13:28:47 2022","The main experiment item","yes","Masked_repetition_priming.osexp","/Users/ethan/Documents/GitHub/OpenSesame/Masked repetition priming/experiment","no","mono","no","18","no","white","no","yes","768","psycho","51","51","/Users/ethan/Documents/GitHub/OpenSesame/Masked repetition priming/experiment/subject-0.csv","psycho","Lentiform Loewenfeld","3.3.12","harp","0","n","n","1083.3652500296012","1083.3652500296012","2","psycho","short","1024","2","48000","-16","experiment","0","even","snail","2035.6354160467163","224433.69487504242","227822.1379580209","228906.94912499748","227440.30050002038","227718.30495801987","227788.20004104637","224430.1857080427","227752.0029580337","2035.8145830105059","227822.01229099883","Masked_repetition_priming","0","46477.395959198475","52","yes","1024"
"undefined","undefined","890.5422091363262","890.5422091363262","black","psycho","psycho","psycho","0","Inc_Nat_Synth","uniform","undefined","undefined","0","52","52","52","52","52","52","52","52","0","52","Thu Oct 27 13:28:47 2022","The main experiment item","yes","Masked_repetition_priming.osexp","/Users/ethan/Documents/GitHub/OpenSesame/Masked repetition priming/experiment","no","mono","no","18","no","white","no","yes","768","psycho","52","52","/Users/ethan/Documents/GitHub/OpenSesame/Masked repetition priming/experiment/subject-0.csv","psycho","Lentiform Loewenfeld","3.3.12","melon","0","m","m","721.3411250268109","721.3411250268109","2","psycho","short","1024","2","48000","-16","experiment","0","even","hose","2035.6354160467163","228980.40575004416","232369.65666600736","233092.3872910207","231987.14229103643","232265.97383304033","232335.77920804964","228977.3668750422","232299.73429103848","2035.8145830105059","232369.53566601733","Masked_repetition_priming","0","47198.737084225286","53","yes","1024"
"undefined","undefined","886.3303279482622","886.3303279482622","black","psycho","psycho","psycho","0","Inc_Synth_Nat","uniform","undefined","undefined","0","53","53","53","53","53","53","53","53","0","53","Thu Oct 27 13:28:47 2022","The main experiment item","yes","Masked_repetition_priming.osexp","/Users/ethan/Documents/GitHub/OpenSesame/Masked repetition priming/experiment","no","mono","no","18","no","white","no","yes","768","psycho","53","53","/Users/ethan/Documents/GitHub/OpenSesame/Masked repetition priming/experiment/subject-0.csv","psycho","Lentiform Loewenfeld","3.3.12","rail","0","n","n","663.1006249808706","663.1006249808706","2","psycho","short","1024","2","48000","-16","experiment","0","even","squid","2035.6354160467163","233163.53474999778","236552.73191601736","237217.29016600875","236170.35208304878","236448.99254100164","236518.74637504807","233160.98124999553","236482.79058304615","2035.8145830105059","236552.61270800838","Masked_repetition_priming","0","47861.83770920616","54","yes","1024"
"undefined","undefined","891.2887931854294","891.2887931854294","black","psycho","psycho","psycho","0","Con_Synth","uniform","undefined","undefined","0","54","54","54","54","54","54","54","54","0","54","Thu Oct 27 13:28:47 2022","The main experiment item","yes","Masked_repetition_priming.osexp","/Users/ethan/Documents/GitHub/OpenSesame/Masked repetition priming/experiment","no","mono","no","18","no","white","no","yes","768","psycho","54","54","/Users/ethan/Documents/GitHub/OpenSesame/Masked repetition priming/experiment/subject-0.csv","psycho","Lentiform Loewenfeld","3.3.12","paint","0","m","m","1159.0459159924649","1159.0459159924649","2","psycho","short","1024","2","48000","-16","experiment","0","even","paint","2035.6354160467163","237288.74420799548","240677.06512502627","241837.5043750275","240295.50079104956","240573.87354102684","240643.38066603523","237285.3037500172","240607.64891601866","2035.8145830105059","240676.93208303535","Masked_repetition_priming","0","49020.88362519862","55","yes","1024"
"undefined","undefined","887.455745538838","887.455745538838","black","psycho","psycho","psycho","0","Con_Nat","uniform","undefined","undefined","0","55","55","55","55","55","55","55","55","0","55","Thu Oct 27 13:28:47 2022","The main experiment item","yes","Masked_repetition_priming.osexp","/Users/ethan/Documents/GitHub/OpenSesame/Masked repetition priming/experiment","no","mono","no","18","no","white","no","yes","768","psycho","55","55","/Users/ethan/Documents/GitHub/OpenSesame/Masked repetition priming/experiment/subject-0.csv","psycho","Lentiform Loewenfeld","3.3.12","tiger","0","n","n","676.6381249763072","676.6381249763072","2","psycho","short","1024","2","48000","-16","experiment","0","even","tiger","2035.6354160467163","241909.17887503747","245298.6443330301","245976.69008304365","244916.9279159978","245194.8501660372","245264.73975001136","241906.5680410131","245228.67570800008","2035.8145830105059","245298.5265830066","Masked_repetition_priming","0","49697.52175017493","56","yes","1024"
"undefined","undefined","881.9410094946394","881.9410094946394","black","psycho","psycho","psycho","0","Inc_Synth_Nat","uniform","undefined","undefined","0","56","56","56","56","56","56","56","56","0","56","Thu Oct 27 13:28:47 2022","The main experiment item","yes","Masked_repetition_priming.osexp","/Users/ethan/Documents/GitHub/OpenSesame/Masked repetition priming/experiment","no","mono","no","18","no","white","no","yes","768","psycho","56","56","/Users/ethan/Documents/GitHub/OpenSesame/Masked repetition priming/experiment/subject-0.csv","psycho","Lentiform Loewenfeld","3.3.12","patio","0","m","m","573.1157910195179","573.1157910195179","2","psycho","short","1024","2","48000","-16","experiment","0","even","sloth","2035.6354160467163","246048.23754105018","249436.7926249979","250011.3825830049","249054.6947910334","249333.1766250194","249403.01679103868","246044.80829101522","249367.00412502978","2035.8145830105059","249436.66941602714","Masked_repetition_priming","0","50270.63754119445","57","yes","1024"
"undefined","undefined","881.5755754175339","881.5755754175339","black","psycho","psycho","psycho","0","Inc_Synth_Nat","uniform","undefined","undefined","0","57","57","57","57","57","57","57","57","0","57","Thu Oct 27 13:28:47 2022","The main experiment item","yes","Masked_repetition_priming.osexp","/Users/ethan/Documents/GitHub/OpenSesame/Masked repetition priming/experiment","no","mono","no","18","no","white","no","yes","768","psycho","57","57","/Users/ethan/Documents/GitHub/OpenSesame/Masked repetition priming/experiment/subject-0.csv","psycho","Lentiform Loewenfeld","3.3.12","kiosk","0","n","n","860.74583302252","860.74583302252","2","psycho","short","1024","2","48000","-16","experiment","0","even","petal","2035.6354160467163","250083.34533299785","253471.8027500203","254333.93104100833","253089.91520799464","253368.3725410374","253437.99062503967","250080.17525001196","253402.08770800382","2035.8145830105059","253471.68729105033","Masked_repetition_priming","0","51131.383374216966","58","yes","1024"
"undefined","undefined","877.0835437659979","877.0835437659979","black","psycho","psycho","psycho","0","Inc_Synth_Nat","uniform","undefined","undefined","0","58","58","58","58","58","58","58","58","0","58","Thu Oct 27 13:28:47 2022","The main experiment item","yes","Masked_repetition_priming.osexp","/Users/ethan/Documents/GitHub/OpenSesame/Masked repetition priming/experiment","no","mono","no","18","no","white","no","yes","768","psycho","58","58","/Users/ethan/Documents/GitHub/OpenSesame/Masked repetition priming/experiment/subject-0.csv","psycho","Lentiform Loewenfeld","3.3.12","spear","0","n","n","616.5457079769112","616.5457079769112","2","psycho","short","1024","2","48000","-16","experiment","0","even","moth","2035.6354160467163","254405.1929580164","257793.27337502036","258411.33875004016","257411.81383299408","257689.70729102148","257759.36958304374","254401.67941601248","257723.5663330066","2035.8145830105059","257793.15783304628","Masked_repetition_priming","0","51747.92908219388","59","yes","1024"
"undefined","undefined","872.5314138699711","872.5314138699711","black","psycho","psycho","psycho","0","Con_Synth","uniform","undefined","undefined","0","59","59","59","59","59","59","59","59","0","59","Thu Oct 27 13:28:47 2022","The main experiment item","yes","Masked_repetition_priming.osexp","/Users/ethan/Documents/GitHub/OpenSesame/Masked repetition priming/experiment","no","mono","no","18","no","white","no","yes","768","psycho","59","59","/Users/ethan/Documents/GitHub/OpenSesame/Masked repetition priming/experiment/subject-0.csv","psycho","Lentiform Loewenfeld","3.3.12","belt","0","m","m","603.9557500043884","603.9557500043884","2","psycho","short","1024","2","48000","-16","experiment","0","even","belt","2035.6354160467163","258483.19245805033","261871.65537499823","262477.0466250484","261489.8767080158","261768.0700000492","261837.82158303075","258479.91283301963","261801.90587503603","2035.8145830105059","261871.5353330481","Masked_repetition_priming","0","52351.884832198266","60","yes","1024"
