acc,accuracy,average_response_time,avg_rt,background,bidi,block,block_picker,browser_codename,browser_name,browser_version,canvas_backend,clock_backend,color_backend,compensation,condition,coordinates,correct,correct_keyboard_response,correct_response,count_backward_mask,count_block_1,count_block_2,count_block_3,count_correct,count_counter_balance,count_experiment,count_fix,count_forward_mask,count_incorrect,count_instructions_1,count_instructions_2,count_instructions_3,count_instructions_4,count_keyboard_response,count_logger,count_osweb,count_practice_loop,count_prime,count_target,count_trials,date_startdate,date_startdateUTC,date_starttime,datetime,description,disable_garbage_collection,experiment_debug,experiment_parameters,experiment_path,experiment_pilot,experiment_taskname,experiment_taskversion,font_bold,font_family,font_italic,font_size,font_underline,foreground,form_clicks,fullscreen,height,jatosStudyResultId,jatosVersion,keyboard_backend,mouse_backend,num_letters,opensesame_codename,opensesame_version,penwidth,prime,queryParams_batchId,queryParams_generalMultiple,repeat_cycle,response,response_instructions_1,response_instructions_2,response_instructions_3,response_instructions_4,response_keyboard_response,response_time,response_time_instructions_1,response_time_instructions_2,response_time_instructions_3,response_time_instructions_4,response_time_keyboard_response,round_decimals,sampler_backend,screen_availableHeight,screen_availableWidth,screen_colorDepth,screen_height,screen_pixelDepth,screen_screenX,screen_screenY,screen_width,sessionid,sound_buf_size,sound_channels,sound_freq,sound_sample_size,start,subject_nr,subject_parity,system_os,target,time_backward_mask,time_block_1,time_block_2,time_block_3,time_correct,time_counter_balance,time_fix,time_forward_mask,time_incorrect,time_instructions_1,time_instructions_2,time_instructions_3,time_instructions_4,time_keyboard_response,time_logger,time_practice_loop,time_prime,time_target,title,total_correct,total_response_time,total_responses,type,uniform_coordinates,width
100,100,1338,1338,black,no,practice,2,Mozilla,Netscape,5.0 (Windows),psycho,psycho,psycho,0,practice,uniform,1,1,f,0,0,0,0,0,0,0,0,0,0,0,0,0,0,0,0,0,0,0,0,0,27-10-22,27-10-22,14:55:24,Sun Nov 27 2022 14:55:24 GMT+0100 (Centraleuropæisk normaltid),The main experiment item,yes,0,0,/Users/ethan/Documents/GitHub/OpenSesame/Class1,0,0,0,no,mono,no,18,no,white,no,no,768,924,3.6.1,psycho,psycho,5,osweb,1.4.11,1,#####,262,,0,f,m,m,a,,f,1338,4309482,1119,1840,,1338,2,psycho,672,1280,24,720,24,-7,-7,1280,1669557156776,1024,2,48000,-16,experiment,0,even,Win32,apple,4313366,57,57,57,,44,4312602,4313265,,57,4309576,4310705,,4313416,4314761,57,4313316,4313415,ExPsyLing2022_Class1,1,1338,1,fruit_veg,yes,1024
100,100,935,935,black,no,practice,2,Mozilla,Netscape,5.0 (Windows),psycho,psycho,psycho,0,practice,uniform,1,1,a,1,0,0,0,1,0,0,1,1,1,0,0,0,0,1,1,0,0,1,1,1,27-10-22,27-10-22,14:55:24,Sun Nov 27 2022 14:55:24 GMT+0100 (Centraleuropæisk normaltid),The main experiment item,yes,0,0,/Users/ethan/Documents/GitHub/OpenSesame/Class1,0,0,0,no,mono,no,18,no,white,no,no,768,924,3.6.1,psycho,psycho,4,osweb,1.4.11,1,#####,262,,0,a,m,m,a,,a,532,4309482,1119,1840,,532,2,psycho,672,1280,24,720,24,-7,-7,1280,1669557156776,1024,2,48000,-16,experiment,0,even,Win32,wolf,4316080,57,57,57,4314771,44,4315321,4315982,,57,4309576,4310705,,4316130,4316677,57,4316032,4316130,ExPsyLing2022_Class1,2,1870,2,animal,yes,1024
67,67,895,895,black,no,practice,2,Mozilla,Netscape,5.0 (Windows),psycho,psycho,psycho,0,practice,uniform,0,0,f,2,0,0,0,2,0,0,2,2,2,0,0,0,0,2,2,0,0,2,2,2,27-10-22,27-10-22,14:55:24,Sun Nov 27 2022 14:55:24 GMT+0100 (Centraleuropæisk normaltid),The main experiment item,yes,0,0,/Users/ethan/Documents/GitHub/OpenSesame/Class1,0,0,0,no,mono,no,18,no,white,no,no,768,924,3.6.1,psycho,psycho,5,osweb,1.4.11,1,#####,262,,0,a,m,m,a,,a,815,4309482,1119,1840,,815,2,psycho,672,1280,24,720,24,-7,-7,1280,1669557156776,1024,2,48000,-16,experiment,0,even,Win32,melon,4317996,57,57,57,4316683,44,4317232,4317895,,57,4309576,4310705,,4318046,4318875,57,4317946,4318046,ExPsyLing2022_Class1,2,2685,3,fruit_veg,yes,1024
75,75,854,854,black,no,practice,2,Mozilla,Netscape,5.0 (Windows),psycho,psycho,psycho,0,practice,uniform,1,1,a,3,0,0,0,3,0,0,3,3,3,0,0,0,0,3,3,0,0,3,3,3,27-10-22,27-10-22,14:55:24,Sun Nov 27 2022 14:55:24 GMT+0100 (Centraleuropæisk normaltid),The main experiment item,yes,0,0,/Users/ethan/Documents/GitHub/OpenSesame/Class1,0,0,0,no,mono,no,18,no,white,no,no,768,924,3.6.1,psycho,psycho,5,osweb,1.4.11,1,#####,262,,0,a,m,m,a,,a,732,4309482,1119,1840,,732,2,psycho,672,1280,24,720,24,-7,-7,1280,1669557156776,1024,2,48000,-16,experiment,0,even,Win32,hound,4320195,57,57,57,4316683,44,4319431,4320095,4318879,57,4309576,4310705,,4320245,4320992,57,4320145,4320244,ExPsyLing2022_Class1,3,3417,4,animal,yes,1024
80,80,809,809,black,no,practice,2,Mozilla,Netscape,5.0 (Windows),psycho,psycho,psycho,0,practice,uniform,1,1,f,4,0,0,0,4,0,0,4,4,4,0,0,0,0,4,4,0,0,4,4,4,27-10-22,27-10-22,14:55:24,Sun Nov 27 2022 14:55:24 GMT+0100 (Centraleuropæisk normaltid),The main experiment item,yes,0,0,/Users/ethan/Documents/GitHub/OpenSesame/Class1,0,0,0,no,mono,no,18,no,white,no,no,768,924,3.6.1,psycho,psycho,6,osweb,1.4.11,1,#####,262,,0,f,m,m,a,,f,627,4309482,1119,1840,,627,2,psycho,672,1280,24,720,24,-7,-7,1280,1669557156776,1024,2,48000,-16,experiment,0,even,Win32,tomato,4322279,57,57,57,4320999,44,4321536,4322194,4318879,57,4309576,4310705,,4322327,4322958,57,4322244,4322327,ExPsyLing2022_Class1,4,4044,5,fruit_veg,yes,1024
83,83,774,774,black,no,practice,2,Mozilla,Netscape,5.0 (Windows),psycho,psycho,psycho,0,practice,uniform,1,1,a,5,0,0,0,5,0,0,5,5,5,0,0,0,0,5,5,0,0,5,5,5,27-10-22,27-10-22,14:55:24,Sun Nov 27 2022 14:55:24 GMT+0100 (Centraleuropæisk normaltid),The main experiment item,yes,0,0,/Users/ethan/Documents/GitHub/OpenSesame/Class1,0,0,0,no,mono,no,18,no,white,no,no,768,924,3.6.1,psycho,psycho,6,osweb,1.4.11,1,#####,262,,0,a,m,m,a,,a,599,4309482,1119,1840,,599,2,psycho,672,1280,24,720,24,-7,-7,1280,1669557156776,1024,2,48000,-16,experiment,0,even,Win32,spider,4324261,57,57,57,4322963,44,4323502,4324160,4318879,57,4309576,4310705,,4324311,4324923,57,4324210,4324310,ExPsyLing2022_Class1,5,4643,6,animal,yes,1024
86,86,767,767,black,no,block2,2,Mozilla,Netscape,5.0 (Windows),psycho,psycho,psycho,0,fully-scrambled,uniform,1,1,f,6,0,0,0,6,0,0,6,6,6,0,0,0,0,6,6,0,0,6,6,6,27-10-22,27-10-22,14:55:24,Sun Nov 27 2022 14:55:24 GMT+0100 (Centraleuropæisk normaltid),The main experiment item,yes,0,0,/Users/ethan/Documents/GitHub/OpenSesame/Class1,0,0,0,no,mono,no,18,no,white,no,no,768,924,3.6.1,psycho,psycho,6,osweb,1.4.11,1,eperpp,262,,0,f,m,m,a,f,f,724,4309482,1119,1840,1026,724,2,psycho,672,1280,24,720,24,-7,-7,1280,1669557156776,1024,2,48000,-16,experiment,0,even,Win32,pepper,4327276,57,57,57,4324928,44,4326521,4327176,4318879,57,4309576,4310705,4325454,4327325,4328056,57,4327226,4327325,ExPsyLing2022_Class1,6,5367,7,fruit_veg,yes,1024
88,88,739,739,black,no,block2,2,Mozilla,Netscape,5.0 (Windows),psycho,psycho,psycho,0,semi-scrambled,uniform,1,1,f,7,0,0,0,7,0,0,7,7,7,0,0,0,0,7,7,0,0,7,7,7,27-10-22,27-10-22,14:55:24,Sun Nov 27 2022 14:55:24 GMT+0100 (Centraleuropæisk normaltid),The main experiment item,yes,0,0,/Users/ethan/Documents/GitHub/OpenSesame/Class1,0,0,0,no,mono,no,18,no,white,no,no,768,924,3.6.1,psycho,psycho,8,osweb,1.4.11,1,bclorcoi,262,,0,f,m,m,a,f,f,544,4309482,1119,1840,1026,544,2,psycho,672,1280,24,720,24,-7,-7,1280,1669557156776,1024,2,48000,-16,experiment,0,even,Win32,broccoli,4329343,57,57,57,4328062,44,4328604,4329259,4318879,57,4309576,4310705,4325454,4329392,4329939,57,4329308,4329392,ExPsyLing2022_Class1,7,5911,8,fruit_veg,yes,1024
89,89,725,725,black,no,block2,2,Mozilla,Netscape,5.0 (Windows),psycho,psycho,psycho,0,identical,uniform,1,1,f,8,0,0,0,8,0,0,8,8,8,0,0,0,0,8,8,0,0,8,8,8,27-10-22,27-10-22,14:55:24,Sun Nov 27 2022 14:55:24 GMT+0100 (Centraleuropæisk normaltid),The main experiment item,yes,0,0,/Users/ethan/Documents/GitHub/OpenSesame/Class1,0,0,0,no,mono,no,18,no,white,no,no,768,924,3.6.1,psycho,psycho,7,osweb,1.4.11,1,rhubarb,262,,0,f,m,m,a,f,f,613,4309482,1119,1840,1026,613,2,psycho,672,1280,24,720,24,-7,-7,1280,1669557156776,1024,2,48000,-16,experiment,0,even,Win32,rhubarb,4331241,57,57,57,4329944,44,4330482,4331139,4318879,57,4309576,4310705,4325454,4331290,4331903,57,4331190,4331290,ExPsyLing2022_Class1,8,6524,9,fruit_veg,yes,1024
90,90,724,724,black,no,block2,2,Mozilla,Netscape,5.0 (Windows),psycho,psycho,psycho,0,fully-scrambled,uniform,1,1,a,9,0,0,0,9,0,0,9,9,9,0,0,0,0,9,9,0,0,9,9,9,27-10-22,27-10-22,14:55:24,Sun Nov 27 2022 14:55:24 GMT+0100 (Centraleuropæisk normaltid),The main experiment item,yes,0,0,/Users/ethan/Documents/GitHub/OpenSesame/Class1,0,0,0,no,mono,no,18,no,white,no,no,768,924,3.6.1,psycho,psycho,7,osweb,1.4.11,1,tupocsu,262,,0,a,m,m,a,f,a,713,4309482,1119,1840,1026,713,2,psycho,672,1280,24,720,24,-7,-7,1280,1669557156776,1024,2,48000,-16,experiment,0,even,Win32,octupus,4333209,57,57,57,4331909,44,4332447,4333109,4318879,57,4309576,4310705,4325454,4333258,4333987,57,4333162,4333258,ExPsyLing2022_Class1,9,7237,10,animal,yes,1024
91,91,720,720,black,no,block2,2,Mozilla,Netscape,5.0 (Windows),psycho,psycho,psycho,0,fully-scrambled,uniform,1,1,f,10,0,0,0,10,0,0,10,10,10,0,0,0,0,10,10,0,0,10,10,10,27-10-22,27-10-22,14:55:24,Sun Nov 27 2022 14:55:24 GMT+0100 (Centraleuropæisk normaltid),The main experiment item,yes,0,0,/Users/ethan/Documents/GitHub/OpenSesame/Class1,0,0,0,no,mono,no,18,no,white,no,no,768,924,3.6.1,psycho,psycho,4,osweb,1.4.11,1,ronc,262,,0,f,m,m,a,f,f,684,4309482,1119,1840,1026,684,2,psycho,672,1280,24,720,24,-7,-7,1280,1669557156776,1024,2,48000,-16,experiment,0,even,Win32,corn,4335306,57,57,57,4333994,44,4334551,4335207,4318879,57,4309576,4310705,4325454,4335357,4336052,57,4335257,4335356,ExPsyLing2022_Class1,10,7921,11,fruit_veg,yes,1024
92,92,745,745,black,no,block2,2,Mozilla,Netscape,5.0 (Windows),psycho,psycho,psycho,0,identical,uniform,1,1,f,11,0,0,0,11,0,0,11,11,11,0,0,0,0,11,11,0,0,11,11,11,27-10-22,27-10-22,14:55:24,Sun Nov 27 2022 14:55:24 GMT+0100 (Centraleuropæisk normaltid),The main experiment item,yes,0,0,/Users/ethan/Documents/GitHub/OpenSesame/Class1,0,0,0,no,mono,no,18,no,white,no,no,768,924,3.6.1,psycho,psycho,7,osweb,1.4.11,1,parsnip,262,,0,f,m,m,a,f,f,1018,4309482,1119,1840,1026,1018,2,psycho,672,1280,24,720,24,-7,-7,1280,1669557156776,1024,2,48000,-16,experiment,0,even,Win32,parsnip,4337372,57,57,57,4336055,44,4336604,4337272,4318879,57,4309576,4310705,4325454,4337422,4338451,57,4337322,4337422,ExPsyLing2022_Class1,11,8939,12,fruit_veg,yes,1024
92,92,737,737,black,no,block2,2,Mozilla,Netscape,5.0 (Windows),psycho,psycho,psycho,0,semi-scrambled,uniform,1,1,f,12,0,0,0,12,0,0,12,12,12,0,0,0,0,12,12,0,0,12,12,12,27-10-22,27-10-22,14:55:24,Sun Nov 27 2022 14:55:24 GMT+0100 (Centraleuropæisk normaltid),The main experiment item,yes,0,0,/Users/ethan/Documents/GitHub/OpenSesame/Class1,0,0,0,no,mono,no,18,no,white,no,no,768,924,3.6.1,psycho,psycho,5,osweb,1.4.11,1,punre,262,,0,f,m,m,a,f,f,642,4309482,1119,1840,1026,642,2,psycho,672,1280,24,720,24,-7,-7,1280,1669557156776,1024,2,48000,-16,experiment,0,even,Win32,prune,4339738,57,57,57,4338457,44,4339000,4339654,4318879,57,4309576,4310705,4325454,4339787,4340434,57,4339704,4339787,ExPsyLing2022_Class1,12,9581,13,fruit_veg,yes,1024
93,93,719,719,black,no,block2,2,Mozilla,Netscape,5.0 (Windows),psycho,psycho,psycho,0,semi-scrambled,uniform,1,1,f,13,0,0,0,13,0,0,13,13,13,0,0,0,0,13,13,0,0,13,13,13,27-10-22,27-10-22,14:55:24,Sun Nov 27 2022 14:55:24 GMT+0100 (Centraleuropæisk normaltid),The main experiment item,yes,0,0,/Users/ethan/Documents/GitHub/OpenSesame/Class1,0,0,0,no,mono,no,18,no,white,no,no,768,924,3.6.1,psycho,psycho,5,osweb,1.4.11,1,ooinn,262,,0,f,m,m,a,f,f,484,4309482,1119,1840,1026,484,2,psycho,672,1280,24,720,24,-7,-7,1280,1669557156776,1024,2,48000,-16,experiment,0,even,Win32,onion,4341736,57,57,57,4340439,44,4340980,4341637,4318879,57,4309576,4310705,4325454,4341787,4342283,57,4341686,4341787,ExPsyLing2022_Class1,13,10065,14,fruit_veg,yes,1024
93,93,703,703,black,no,block2,2,Mozilla,Netscape,5.0 (Windows),psycho,psycho,psycho,0,semi-scrambled,uniform,1,1,f,14,0,0,0,14,0,0,14,14,14,0,0,0,0,14,14,0,0,14,14,14,27-10-22,27-10-22,14:55:24,Sun Nov 27 2022 14:55:24 GMT+0100 (Centraleuropæisk normaltid),The main experiment item,yes,0,0,/Users/ethan/Documents/GitHub/OpenSesame/Class1,0,0,0,no,mono,no,18,no,white,no,no,768,924,3.6.1,psycho,psycho,6,osweb,1.4.11,1,susqah,262,,0,f,m,m,a,f,f,474,4309482,1119,1840,1026,474,2,psycho,672,1280,24,720,24,-7,-7,1280,1669557156776,1024,2,48000,-16,experiment,0,even,Win32,squash,4343586,57,57,57,4342288,44,4342830,4343487,4318879,57,4309576,4310705,4325454,4343637,4344116,57,4343536,4343636,ExPsyLing2022_Class1,14,10539,15,fruit_veg,yes,1024
94,94,692,692,black,no,block2,2,Mozilla,Netscape,5.0 (Windows),psycho,psycho,psycho,0,semi-scrambled,uniform,1,1,f,15,0,0,0,15,0,0,15,15,15,0,0,0,0,15,15,0,0,15,15,15,27-10-22,27-10-22,14:55:24,Sun Nov 27 2022 14:55:24 GMT+0100 (Centraleuropæisk normaltid),The main experiment item,yes,0,0,/Users/ethan/Documents/GitHub/OpenSesame/Class1,0,0,0,no,mono,no,18,no,white,no,no,768,924,3.6.1,psycho,psycho,6,osweb,1.4.11,1,croart,262,,0,f,m,m,a,f,f,533,4309482,1119,1840,1026,533,2,psycho,672,1280,24,720,24,-7,-7,1280,1669557156776,1024,2,48000,-16,experiment,0,even,Win32,carrot,4345401,57,57,57,4344122,44,4344660,4345318,4318879,57,4309576,4310705,4325454,4345450,4345998,57,4345367,4345450,ExPsyLing2022_Class1,15,11072,16,fruit_veg,yes,1024
94,94,685,685,black,no,block2,2,Mozilla,Netscape,5.0 (Windows),psycho,psycho,psycho,0,identical,uniform,1,1,a,16,0,0,0,16,0,0,16,16,16,0,0,0,0,16,16,0,0,16,16,16,27-10-22,27-10-22,14:55:24,Sun Nov 27 2022 14:55:24 GMT+0100 (Centraleuropæisk normaltid),The main experiment item,yes,0,0,/Users/ethan/Documents/GitHub/OpenSesame/Class1,0,0,0,no,mono,no,18,no,white,no,no,768,924,3.6.1,psycho,psycho,7,osweb,1.4.11,1,chicken,262,,0,a,m,m,a,f,a,568,4309482,1119,1840,1026,568,2,psycho,672,1280,24,720,24,-7,-7,1280,1669557156776,1024,2,48000,-16,experiment,0,even,Win32,chicken,4347301,57,57,57,4346002,44,4346543,4347200,4318879,57,4309576,4310705,4325454,4347350,4347931,57,4347251,4347350,ExPsyLing2022_Class1,16,11640,17,animal,yes,1024
94,94,679,679,black,no,block2,2,Mozilla,Netscape,5.0 (Windows),psycho,psycho,psycho,0,identical,uniform,1,1,f,17,0,0,0,17,0,0,17,17,17,0,0,0,0,17,17,0,0,17,17,17,27-10-22,27-10-22,14:55:24,Sun Nov 27 2022 14:55:24 GMT+0100 (Centraleuropæisk normaltid),The main experiment item,yes,0,0,/Users/ethan/Documents/GitHub/OpenSesame/Class1,0,0,0,no,mono,no,18,no,white,no,no,768,924,3.6.1,psycho,psycho,5,osweb,1.4.11,1,olive,262,,0,f,m,m,a,f,f,575,4309482,1119,1840,1026,575,2,psycho,672,1280,24,720,24,-7,-7,1280,1669557156776,1024,2,48000,-16,experiment,0,even,Win32,olive,4349233,57,57,57,4347936,44,4348480,4349134,4318879,57,4309576,4310705,4325454,4349284,4349864,57,4349184,4349283,ExPsyLing2022_Class1,17,12215,18,fruit_veg,yes,1024
95,95,677,677,black,no,block2,2,Mozilla,Netscape,5.0 (Windows),psycho,psycho,psycho,0,identical,uniform,1,1,a,18,0,0,0,18,0,0,18,18,18,0,0,0,0,18,18,0,0,18,18,18,27-10-22,27-10-22,14:55:24,Sun Nov 27 2022 14:55:24 GMT+0100 (Centraleuropæisk normaltid),The main experiment item,yes,0,0,/Users/ethan/Documents/GitHub/OpenSesame/Class1,0,0,0,no,mono,no,18,no,white,no,no,768,924,3.6.1,psycho,psycho,4,osweb,1.4.11,1,calf,262,,0,a,m,m,a,f,a,651,4309482,1119,1840,1026,651,2,psycho,672,1280,24,720,24,-7,-7,1280,1669557156776,1024,2,48000,-16,experiment,0,even,Win32,calf,4351150,57,57,57,4349869,44,4350403,4351064,4318879,57,4309576,4310705,4325454,4351200,4351863,57,4351114,4351200,ExPsyLing2022_Class1,18,12866,19,animal,yes,1024
95,95,686,686,black,no,block2,2,Mozilla,Netscape,5.0 (Windows),psycho,psycho,psycho,0,semi-scrambled,uniform,1,1,a,19,0,0,0,19,0,0,19,19,19,0,0,0,0,19,19,0,0,19,19,19,27-10-22,27-10-22,14:55:24,Sun Nov 27 2022 14:55:24 GMT+0100 (Centraleuropæisk normaltid),The main experiment item,yes,0,0,/Users/ethan/Documents/GitHub/OpenSesame/Class1,0,0,0,no,mono,no,18,no,white,no,no,768,924,3.6.1,psycho,psycho,6,osweb,1.4.11,1,juaagr,262,,0,a,m,m,a,f,a,846,4309482,1119,1840,1026,846,2,psycho,672,1280,24,720,24,-7,-7,1280,1669557156776,1024,2,48000,-16,experiment,0,even,Win32,jaguar,4353150,57,57,57,4351868,44,4352405,4353065,4318879,57,4309576,4310705,4325454,4353199,4354062,57,4353115,4353199,ExPsyLing2022_Class1,19,13712,20,animal,yes,1024
95,95,678,678,black,no,block2,2,Mozilla,Netscape,5.0 (Windows),psycho,psycho,psycho,0,semi-scrambled,uniform,1,1,f,20,0,0,0,20,0,0,20,20,20,0,0,0,0,20,20,0,0,20,20,20,27-10-22,27-10-22,14:55:24,Sun Nov 27 2022 14:55:24 GMT+0100 (Centraleuropæisk normaltid),The main experiment item,yes,0,0,/Users/ethan/Documents/GitHub/OpenSesame/Class1,0,0,0,no,mono,no,18,no,white,no,no,768,924,3.6.1,psycho,psycho,6,osweb,1.4.11,1,ograne,262,,0,f,m,m,a,f,f,531,4309482,1119,1840,1026,531,2,psycho,672,1280,24,720,24,-7,-7,1280,1669557156776,1024,2,48000,-16,experiment,0,even,Win32,orange,4355349,57,57,57,4354066,44,4354599,4355265,4318879,57,4309576,4310705,4325454,4355398,4355945,57,4355314,4355398,ExPsyLing2022_Class1,20,14243,21,fruit_veg,yes,1024
95,95,679,679,black,no,block2,2,Mozilla,Netscape,5.0 (Windows),psycho,psycho,psycho,0,fully-scrambled,uniform,1,1,a,21,0,0,0,21,0,0,21,21,21,0,0,0,0,21,21,0,0,21,21,21,27-10-22,27-10-22,14:55:24,Sun Nov 27 2022 14:55:24 GMT+0100 (Centraleuropæisk normaltid),The main experiment item,yes,0,0,/Users/ethan/Documents/GitHub/OpenSesame/Class1,0,0,0,no,mono,no,18,no,white,no,no,768,924,3.6.1,psycho,psycho,4,osweb,1.4.11,1,lulb,262,,0,a,m,m,a,f,a,704,4309482,1119,1840,1026,704,2,psycho,672,1280,24,720,24,-7,-7,1280,1669557156776,1024,2,48000,-16,experiment,0,even,Win32,bull,4357231,57,57,57,4355949,44,4356484,4357145,4318879,57,4309576,4310705,4325454,4357280,4357994,57,4357195,4357280,ExPsyLing2022_Class1,21,14947,22,animal,yes,1024
96,96,680,680,black,no,block2,2,Mozilla,Netscape,5.0 (Windows),psycho,psycho,psycho,0,fully-scrambled,uniform,1,1,a,22,0,0,0,22,0,0,22,22,22,0,0,0,0,22,22,0,0,22,22,22,27-10-22,27-10-22,14:55:24,Sun Nov 27 2022 14:55:24 GMT+0100 (Centraleuropæisk normaltid),The main experiment item,yes,0,0,/Users/ethan/Documents/GitHub/OpenSesame/Class1,0,0,0,no,mono,no,18,no,white,no,no,768,924,3.6.1,psycho,psycho,8,osweb,1.4.11,1,ooarkang,262,,0,a,m,m,a,f,a,686,4309482,1119,1840,1026,686,2,psycho,672,1280,24,720,24,-7,-7,1280,1669557156776,1024,2,48000,-16,experiment,0,even,Win32,kangaroo,4359282,57,57,57,4357998,44,4358538,4359196,4318879,57,4309576,4310705,4325454,4359330,4360026,57,4359246,4359330,ExPsyLing2022_Class1,22,15633,23,animal,yes,1024
96,96,678,678,black,no,block2,2,Mozilla,Netscape,5.0 (Windows),psycho,psycho,psycho,0,semi-scrambled,uniform,1,1,f,23,0,0,0,23,0,0,23,23,23,0,0,0,0,23,23,0,0,23,23,23,27-10-22,27-10-22,14:55:24,Sun Nov 27 2022 14:55:24 GMT+0100 (Centraleuropæisk normaltid),The main experiment item,yes,0,0,/Users/ethan/Documents/GitHub/OpenSesame/Class1,0,0,0,no,mono,no,18,no,white,no,no,768,924,3.6.1,psycho,psycho,4,osweb,1.4.11,1,pulm,262,,0,f,m,m,a,f,f,628,4309482,1119,1840,1026,628,2,psycho,672,1280,24,720,24,-7,-7,1280,1669557156776,1024,2,48000,-16,experiment,0,even,Win32,plum,4361329,57,57,57,4360031,44,4360569,4361229,4318879,57,4309576,4310705,4325454,4361379,4362008,57,4361279,4361379,ExPsyLing2022_Class1,23,16261,24,fruit_veg,yes,1024
96,96,677,677,black,no,block2,2,Mozilla,Netscape,5.0 (Windows),psycho,psycho,psycho,0,semi-scrambled,uniform,1,1,f,24,0,0,0,24,0,0,24,24,24,0,0,0,0,24,24,0,0,24,24,24,27-10-22,27-10-22,14:55:24,Sun Nov 27 2022 14:55:24 GMT+0100 (Centraleuropæisk normaltid),The main experiment item,yes,0,0,/Users/ethan/Documents/GitHub/OpenSesame/Class1,0,0,0,no,mono,no,18,no,white,no,no,768,924,3.6.1,psycho,psycho,4,osweb,1.4.11,1,pmoe,262,,0,f,m,m,a,f,f,669,4309482,1119,1840,1026,669,2,psycho,672,1280,24,720,24,-7,-7,1280,1669557156776,1024,2,48000,-16,experiment,0,even,Win32,pome,4363328,57,57,57,4362014,44,4362558,4363228,4318879,57,4309576,4310705,4325454,4363378,4364058,57,4363278,4363378,ExPsyLing2022_Class1,24,16930,25,fruit_veg,yes,1024
96,96,670,670,black,no,block2,2,Mozilla,Netscape,5.0 (Windows),psycho,psycho,psycho,0,identical,uniform,1,1,f,25,0,0,0,25,0,0,25,25,25,0,0,0,0,25,25,0,0,25,25,25,27-10-22,27-10-22,14:55:24,Sun Nov 27 2022 14:55:24 GMT+0100 (Centraleuropæisk normaltid),The main experiment item,yes,0,0,/Users/ethan/Documents/GitHub/OpenSesame/Class1,0,0,0,no,mono,no,18,no,white,no,no,768,924,3.6.1,psycho,psycho,7,osweb,1.4.11,1,avocado,262,,0,f,m,m,a,f,f,502,4309482,1119,1840,1026,502,2,psycho,672,1280,24,720,24,-7,-7,1280,1669557156776,1024,2,48000,-16,experiment,0,even,Win32,avocado,4365345,57,57,57,4364064,44,4364600,4365260,4318879,57,4309576,4310705,4325454,4365398,4365907,57,4365310,4365398,ExPsyLing2022_Class1,25,17432,26,fruit_veg,yes,1024
96,96,675,675,black,no,block2,2,Mozilla,Netscape,5.0 (Windows),psycho,psycho,psycho,0,fully-scrambled,uniform,1,1,a,26,0,0,0,26,0,0,26,26,26,0,0,0,0,26,26,0,0,26,26,26,27-10-22,27-10-22,14:55:24,Sun Nov 27 2022 14:55:24 GMT+0100 (Centraleuropæisk normaltid),The main experiment item,yes,0,0,/Users/ethan/Documents/GitHub/OpenSesame/Class1,0,0,0,no,mono,no,18,no,white,no,no,768,924,3.6.1,psycho,psycho,8,osweb,1.4.11,1,stotoeir,262,,0,a,m,m,a,f,a,785,4309482,1119,1840,1026,785,2,psycho,672,1280,24,720,24,-7,-7,1280,1669557156776,1024,2,48000,-16,experiment,0,even,Win32,tortoise,4367193,57,57,57,4365912,44,4366451,4367109,4318879,57,4309576,4310705,4325454,4367241,4368040,57,4367158,4367241,ExPsyLing2022_Class1,26,18217,27,animal,yes,1024
96,96,684,684,black,no,block2,2,Mozilla,Netscape,5.0 (Windows),psycho,psycho,psycho,0,fully-scrambled,uniform,1,1,a,27,0,0,0,27,0,0,27,27,27,0,0,0,0,27,27,0,0,27,27,27,27-10-22,27-10-22,14:55:24,Sun Nov 27 2022 14:55:24 GMT+0100 (Centraleuropæisk normaltid),The main experiment item,yes,0,0,/Users/ethan/Documents/GitHub/OpenSesame/Class1,0,0,0,no,mono,no,18,no,white,no,no,768,924,3.6.1,psycho,psycho,8,osweb,1.4.11,1,uchikmpn,262,,0,a,m,m,a,f,a,936,4309482,1119,1840,1026,936,2,psycho,672,1280,24,720,24,-7,-7,1280,1669557156776,1024,2,48000,-16,experiment,0,even,Win32,chipmunk,4369327,57,57,57,4368044,44,4368583,4369241,4318879,57,4309576,4310705,4325454,4369376,4370322,57,4369291,4369376,ExPsyLing2022_Class1,27,19153,28,animal,yes,1024
97,97,685,685,black,no,block2,2,Mozilla,Netscape,5.0 (Windows),psycho,psycho,psycho,0,identical,uniform,1,1,f,28,0,0,0,28,0,0,28,28,28,0,0,0,0,28,28,0,0,28,28,28,27-10-22,27-10-22,14:55:24,Sun Nov 27 2022 14:55:24 GMT+0100 (Centraleuropæisk normaltid),The main experiment item,yes,0,0,/Users/ethan/Documents/GitHub/OpenSesame/Class1,0,0,0,no,mono,no,18,no,white,no,no,768,924,3.6.1,psycho,psycho,4,osweb,1.4.11,1,date,262,,0,f,m,m,a,f,f,704,4309482,1119,1840,1026,704,2,psycho,672,1280,24,720,24,-7,-7,1280,1669557156776,1024,2,48000,-16,experiment,0,even,Win32,date,4371609,57,57,57,4370326,44,4370866,4371525,4318879,57,4309576,4310705,4325454,4371659,4372372,57,4371574,4371658,ExPsyLing2022_Class1,28,19857,29,fruit_veg,yes,1024
97,97,691,691,black,no,block2,2,Mozilla,Netscape,5.0 (Windows),psycho,psycho,psycho,0,semi-scrambled,uniform,1,1,a,29,0,0,0,29,0,0,29,29,29,0,0,0,0,29,29,0,0,29,29,29,27-10-22,27-10-22,14:55:24,Sun Nov 27 2022 14:55:24 GMT+0100 (Centraleuropæisk normaltid),The main experiment item,yes,0,0,/Users/ethan/Documents/GitHub/OpenSesame/Class1,0,0,0,no,mono,no,18,no,white,no,no,768,924,3.6.1,psycho,psycho,7,osweb,1.4.11,1,dlhoipn,262,,0,a,m,m,a,f,a,879,4309482,1119,1840,1026,879,2,psycho,672,1280,24,720,24,-7,-7,1280,1669557156776,1024,2,48000,-16,experiment,0,even,Win32,dolphin,4373658,57,57,57,4372375,44,4372912,4373573,4318879,57,4309576,4310705,4325454,4373707,4374587,57,4373623,4373707,ExPsyLing2022_Class1,29,20736,30,animal,yes,1024
97,97,686,686,black,no,block2,2,Mozilla,Netscape,5.0 (Windows),psycho,psycho,psycho,0,semi-scrambled,uniform,1,1,f,30,0,0,0,30,0,0,30,30,30,0,0,0,0,30,30,0,0,30,30,30,27-10-22,27-10-22,14:55:24,Sun Nov 27 2022 14:55:24 GMT+0100 (Centraleuropæisk normaltid),The main experiment item,yes,0,0,/Users/ethan/Documents/GitHub/OpenSesame/Class1,0,0,0,no,mono,no,18,no,white,no,no,768,924,3.6.1,psycho,psycho,8,osweb,1.4.11,1,zcnhcuii,262,,0,f,m,m,a,f,f,535,4309482,1119,1840,1026,535,2,psycho,672,1280,24,720,24,-7,-7,1280,1669557156776,1024,2,48000,-16,experiment,0,even,Win32,zucchini,4375873,57,57,57,4374590,44,4375129,4375789,4318879,57,4309576,4310705,4325454,4375922,4376470,57,4375839,4375922,ExPsyLing2022_Class1,30,21271,31,fruit_veg,yes,1024
97,97,681,681,black,no,block2,2,Mozilla,Netscape,5.0 (Windows),psycho,psycho,psycho,0,fully-scrambled,uniform,1,1,f,31,0,0,0,31,0,0,31,31,31,0,0,0,0,31,31,0,0,31,31,31,27-10-22,27-10-22,14:55:24,Sun Nov 27 2022 14:55:24 GMT+0100 (Centraleuropæisk normaltid),The main experiment item,yes,0,0,/Users/ethan/Documents/GitHub/OpenSesame/Class1,0,0,0,no,mono,no,18,no,white,no,no,768,924,3.6.1,psycho,psycho,5,osweb,1.4.11,1,gmoan,262,,0,f,m,m,a,f,f,520,4309482,1119,1840,1026,520,2,psycho,672,1280,24,720,24,-7,-7,1280,1669557156776,1024,2,48000,-16,experiment,0,even,Win32,mango,4377755,57,57,57,4376474,44,4377012,4377670,4318879,57,4309576,4310705,4325454,4377804,4378335,57,4377721,4377804,ExPsyLing2022_Class1,31,21791,32,fruit_veg,yes,1024
97,97,684,684,black,no,block2,2,Mozilla,Netscape,5.0 (Windows),psycho,psycho,psycho,0,semi-scrambled,uniform,1,1,a,32,0,0,0,32,0,0,32,32,32,0,0,0,0,32,32,0,0,32,32,32,27-10-22,27-10-22,14:55:24,Sun Nov 27 2022 14:55:24 GMT+0100 (Centraleuropæisk normaltid),The main experiment item,yes,0,0,/Users/ethan/Documents/GitHub/OpenSesame/Class1,0,0,0,no,mono,no,18,no,white,no,no,768,924,3.6.1,psycho,psycho,8,osweb,1.4.11,1,apnleote,262,,0,a,m,m,a,f,a,797,4309482,1119,1840,1026,797,2,psycho,672,1280,24,720,24,-7,-7,1280,1669557156776,1024,2,48000,-16,experiment,0,even,Win32,antelope,4379638,57,57,57,4378338,44,4378875,4379537,4318879,57,4309576,4310705,4325454,4379688,4380501,57,4379588,4379688,ExPsyLing2022_Class1,32,22588,33,animal,yes,1024
97,97,684,684,black,no,block2,2,Mozilla,Netscape,5.0 (Windows),psycho,psycho,psycho,0,semi-scrambled,uniform,1,1,a,33,0,0,0,33,0,0,33,33,33,0,0,0,0,33,33,0,0,33,33,33,27-10-22,27-10-22,14:55:24,Sun Nov 27 2022 14:55:24 GMT+0100 (Centraleuropæisk normaltid),The main experiment item,yes,0,0,/Users/ethan/Documents/GitHub/OpenSesame/Class1,0,0,0,no,mono,no,18,no,white,no,no,768,924,3.6.1,psycho,psycho,6,osweb,1.4.11,1,bveear,262,,0,a,m,m,a,f,a,653,4309482,1119,1840,1026,653,2,psycho,672,1280,24,720,24,-7,-7,1280,1669557156776,1024,2,48000,-16,experiment,0,even,Win32,beaver,4381803,57,57,57,4380505,44,4381034,4381702,4318879,57,4309576,4310705,4325454,4381854,4382517,57,4381754,4381854,ExPsyLing2022_Class1,33,23241,34,animal,yes,1024
97,97,678,678,black,no,block2,2,Mozilla,Netscape,5.0 (Windows),psycho,psycho,psycho,0,identical,uniform,1,1,a,34,0,0,0,34,0,0,34,34,34,0,0,0,0,34,34,0,0,34,34,34,27-10-22,27-10-22,14:55:24,Sun Nov 27 2022 14:55:24 GMT+0100 (Centraleuropæisk normaltid),The main experiment item,yes,0,0,/Users/ethan/Documents/GitHub/OpenSesame/Class1,0,0,0,no,mono,no,18,no,white,no,no,768,924,3.6.1,psycho,psycho,5,osweb,1.4.11,1,horse,262,,0,a,m,m,a,f,a,500,4309482,1119,1840,1026,500,2,psycho,672,1280,24,720,24,-7,-7,1280,1669557156776,1024,2,48000,-16,experiment,0,even,Win32,horse,4383820,57,57,57,4382521,44,4383060,4383720,4318879,57,4309576,4310705,4325454,4383869,4384384,57,4383770,4383869,ExPsyLing2022_Class1,34,23741,35,animal,yes,1024
97,97,676,676,black,no,block2,2,Mozilla,Netscape,5.0 (Windows),psycho,psycho,psycho,0,identical,uniform,1,1,a,35,0,0,0,35,0,0,35,35,35,0,0,0,0,35,35,0,0,35,35,35,27-10-22,27-10-22,14:55:24,Sun Nov 27 2022 14:55:24 GMT+0100 (Centraleuropæisk normaltid),The main experiment item,yes,0,0,/Users/ethan/Documents/GitHub/OpenSesame/Class1,0,0,0,no,mono,no,18,no,white,no,no,768,924,3.6.1,psycho,psycho,6,osweb,1.4.11,1,turtle,262,,0,a,m,m,a,f,a,597,4309482,1119,1840,1026,597,2,psycho,672,1280,24,720,24,-7,-7,1280,1669557156776,1024,2,48000,-16,experiment,0,even,Win32,turtle,4385686,57,57,57,4384388,44,4384924,4385586,4318879,57,4309576,4310705,4325454,4385736,4386333,57,4385636,4385736,ExPsyLing2022_Class1,35,24338,36,animal,yes,1024
97,97,676,676,black,no,block2,2,Mozilla,Netscape,5.0 (Windows),psycho,psycho,psycho,0,semi-scrambled,uniform,1,1,a,36,0,0,0,36,0,0,36,36,36,0,0,0,0,36,36,0,0,36,36,36,27-10-22,27-10-22,14:55:24,Sun Nov 27 2022 14:55:24 GMT+0100 (Centraleuropæisk normaltid),The main experiment item,yes,0,0,/Users/ethan/Documents/GitHub/OpenSesame/Class1,0,0,0,no,mono,no,18,no,white,no,no,768,924,3.6.1,psycho,psycho,5,osweb,1.4.11,1,rnhio,262,,0,a,m,m,a,f,a,684,4309482,1119,1840,1026,684,2,psycho,672,1280,24,720,24,-7,-7,1280,1669557156776,1024,2,48000,-16,experiment,0,even,Win32,rhino,4387620,57,57,57,4386336,44,4386872,4387535,4318879,57,4309576,4310705,4325454,4387668,4388365,57,4387584,4387668,ExPsyLing2022_Class1,36,25022,37,animal,yes,1024
97,97,677,677,black,no,block2,2,Mozilla,Netscape,5.0 (Windows),psycho,psycho,psycho,0,fully-scrambled,uniform,1,1,f,37,0,0,0,37,0,0,37,37,37,0,0,0,0,37,37,0,0,37,37,37,27-10-22,27-10-22,14:55:24,Sun Nov 27 2022 14:55:24 GMT+0100 (Centraleuropæisk normaltid),The main experiment item,yes,0,0,/Users/ethan/Documents/GitHub/OpenSesame/Class1,0,0,0,no,mono,no,18,no,white,no,no,768,924,3.6.1,psycho,psycho,4,osweb,1.4.11,1,elim,262,,0,f,m,m,a,f,f,717,4309482,1119,1840,1026,717,2,psycho,672,1280,24,720,24,-7,-7,1280,1669557156776,1024,2,48000,-16,experiment,0,even,Win32,lime,4389652,57,57,57,4388368,44,4388907,4389567,4318879,57,4309576,4310705,4325454,4389699,4390431,57,4389617,4389699,ExPsyLing2022_Class1,37,25739,38,fruit_veg,yes,1024
97,97,678,678,black,no,block2,2,Mozilla,Netscape,5.0 (Windows),psycho,psycho,psycho,0,semi-scrambled,uniform,1,1,f,38,0,0,0,38,0,0,38,38,38,0,0,0,0,38,38,0,0,38,38,38,27-10-22,27-10-22,14:55:24,Sun Nov 27 2022 14:55:24 GMT+0100 (Centraleuropæisk normaltid),The main experiment item,yes,0,0,/Users/ethan/Documents/GitHub/OpenSesame/Class1,0,0,0,no,mono,no,18,no,white,no,no,768,924,3.6.1,psycho,psycho,5,osweb,1.4.11,1,gapre,262,,0,f,m,m,a,f,f,688,4309482,1119,1840,1026,688,2,psycho,672,1280,24,720,24,-7,-7,1280,1669557156776,1024,2,48000,-16,experiment,0,even,Win32,grape,4391717,57,57,57,4390434,44,4390969,4391633,4318879,57,4309576,4310705,4325454,4391766,4392464,57,4391682,4391766,ExPsyLing2022_Class1,38,26427,39,fruit_veg,yes,1024
98,98,677,677,black,no,block2,2,Mozilla,Netscape,5.0 (Windows),psycho,psycho,psycho,0,identical,uniform,1,1,f,39,0,0,0,39,0,0,39,39,39,0,0,0,0,39,39,0,0,39,39,39,27-10-22,27-10-22,14:55:24,Sun Nov 27 2022 14:55:24 GMT+0100 (Centraleuropæisk normaltid),The main experiment item,yes,0,0,/Users/ethan/Documents/GitHub/OpenSesame/Class1,0,0,0,no,mono,no,18,no,white,no,no,768,924,3.6.1,psycho,psycho,8,osweb,1.4.11,1,beetroot,262,,0,f,m,m,a,f,f,633,4309482,1119,1840,1026,633,2,psycho,672,1280,24,720,24,-7,-7,1280,1669557156776,1024,2,48000,-16,experiment,0,even,Win32,beetroot,4393766,57,57,57,4392467,44,4393003,4393665,4318879,57,4309576,4310705,4325454,4393816,4394463,57,4393716,4393816,ExPsyLing2022_Class1,39,27060,40,fruit_veg,yes,1024
98,98,675,675,black,no,block2,2,Mozilla,Netscape,5.0 (Windows),psycho,psycho,psycho,0,fully-scrambled,uniform,1,1,a,40,0,0,0,40,0,0,40,40,40,0,0,0,0,40,40,0,0,40,40,40,27-10-22,27-10-22,14:55:24,Sun Nov 27 2022 14:55:24 GMT+0100 (Centraleuropæisk normaltid),The main experiment item,yes,0,0,/Users/ethan/Documents/GitHub/OpenSesame/Class1,0,0,0,no,mono,no,18,no,white,no,no,768,924,3.6.1,psycho,psycho,5,osweb,1.4.11,1,umeso,262,,0,a,m,m,a,f,a,614,4309482,1119,1840,1026,614,2,psycho,672,1280,24,720,24,-7,-7,1280,1669557156776,1024,2,48000,-16,experiment,0,even,Win32,mouse,4395765,57,57,57,4394466,44,4395002,4395665,4318879,57,4309576,4310705,4325454,4395815,4396446,57,4395715,4395815,ExPsyLing2022_Class1,40,27674,41,animal,yes,1024
98,98,683,683,black,no,block2,2,Mozilla,Netscape,5.0 (Windows),psycho,psycho,psycho,0,fully-scrambled,uniform,1,1,a,41,0,0,0,41,0,0,41,41,41,0,0,0,0,41,41,0,0,41,41,41,27-10-22,27-10-22,14:55:24,Sun Nov 27 2022 14:55:24 GMT+0100 (Centraleuropæisk normaltid),The main experiment item,yes,0,0,/Users/ethan/Documents/GitHub/OpenSesame/Class1,0,0,0,no,mono,no,18,no,white,no,no,768,924,3.6.1,psycho,psycho,5,osweb,1.4.11,1,alemc,262,,0,a,m,m,a,f,a,992,4309482,1119,1840,1026,992,2,psycho,672,1280,24,720,24,-7,-7,1280,1669557156776,1024,2,48000,-16,experiment,0,even,Win32,camel,4397749,57,57,57,4396449,44,4396984,4397650,4318879,57,4309576,4310705,4325454,4397799,4398794,57,4397702,4397798,ExPsyLing2022_Class1,41,28666,42,animal,yes,1024
98,98,684,684,black,no,block2,2,Mozilla,Netscape,5.0 (Windows),psycho,psycho,psycho,0,fully-scrambled,uniform,1,1,a,42,0,0,0,42,0,0,42,42,42,0,0,0,0,42,42,0,0,42,42,42,27-10-22,27-10-22,14:55:24,Sun Nov 27 2022 14:55:24 GMT+0100 (Centraleuropæisk normaltid),The main experiment item,yes,0,0,/Users/ethan/Documents/GitHub/OpenSesame/Class1,0,0,0,no,mono,no,18,no,white,no,no,768,924,3.6.1,psycho,psycho,6,osweb,1.4.11,1,aruocg,262,,0,a,m,m,a,f,a,737,4309482,1119,1840,1026,737,2,psycho,672,1280,24,720,24,-7,-7,1280,1669557156776,1024,2,48000,-16,experiment,0,even,Win32,cougar,4400097,57,57,57,4398802,44,4399341,4399997,4318879,57,4309576,4310705,4325454,4400148,4400894,57,4400047,4400147,ExPsyLing2022_Class1,42,29403,43,animal,yes,1024
98,98,683,683,black,no,block2,2,Mozilla,Netscape,5.0 (Windows),psycho,psycho,psycho,0,identical,uniform,1,1,a,43,0,0,0,43,0,0,43,43,43,0,0,0,0,43,43,0,0,43,43,43,27-10-22,27-10-22,14:55:24,Sun Nov 27 2022 14:55:24 GMT+0100 (Centraleuropæisk normaltid),The main experiment item,yes,0,0,/Users/ethan/Documents/GitHub/OpenSesame/Class1,0,0,0,no,mono,no,18,no,white,no,no,768,924,3.6.1,psycho,psycho,7,osweb,1.4.11,1,penguin,262,,0,a,m,m,a,f,a,628,4309482,1119,1840,1026,628,2,psycho,672,1280,24,720,24,-7,-7,1280,1669557156776,1024,2,48000,-16,experiment,0,even,Win32,penguin,4402196,57,57,57,4400902,44,4401444,4402112,4318879,57,4309576,4310705,4325454,4402246,4402876,57,4402162,4402246,ExPsyLing2022_Class1,43,30031,44,animal,yes,1024
98,98,685,685,black,no,block2,2,Mozilla,Netscape,5.0 (Windows),psycho,psycho,psycho,0,fully-scrambled,uniform,1,1,a,44,0,0,0,44,0,0,44,44,44,0,0,0,0,44,44,0,0,44,44,44,27-10-22,27-10-22,14:55:24,Sun Nov 27 2022 14:55:24 GMT+0100 (Centraleuropæisk normaltid),The main experiment item,yes,0,0,/Users/ethan/Documents/GitHub/OpenSesame/Class1,0,0,0,no,mono,no,18,no,white,no,no,768,924,3.6.1,psycho,psycho,6,osweb,1.4.11,1,briatb,262,,0,a,m,m,a,f,a,813,4309482,1119,1840,1026,813,2,psycho,672,1280,24,720,24,-7,-7,1280,1669557156776,1024,2,48000,-16,experiment,0,even,Win32,rabbit,4404178,57,57,57,4402882,44,4403424,4404078,4318879,57,4309576,4310705,4325454,4404228,4405042,57,4404128,4404228,ExPsyLing2022_Class1,44,30844,45,animal,yes,1024
98,98,692,692,black,no,block2,2,Mozilla,Netscape,5.0 (Windows),psycho,psycho,psycho,0,semi-scrambled,uniform,1,1,a,45,0,0,0,45,0,0,45,45,45,0,0,0,0,45,45,0,0,45,45,45,27-10-22,27-10-22,14:55:24,Sun Nov 27 2022 14:55:24 GMT+0100 (Centraleuropæisk normaltid),The main experiment item,yes,0,0,/Users/ethan/Documents/GitHub/OpenSesame/Class1,0,0,0,no,mono,no,18,no,white,no,no,768,924,3.6.1,psycho,psycho,5,osweb,1.4.11,1,kaloa,262,,0,a,m,m,a,f,a,1002,4309482,1119,1840,1026,1002,2,psycho,672,1280,24,720,24,-7,-7,1280,1669557156776,1024,2,48000,-16,experiment,0,even,Win32,koala,4406328,57,57,57,4405047,44,4405587,4406245,4318879,57,4309576,4310705,4325454,4406377,4407391,57,4406294,4406376,ExPsyLing2022_Class1,45,31846,46,animal,yes,1024
98,98,705,705,black,no,block2,2,Mozilla,Netscape,5.0 (Windows),psycho,psycho,psycho,0,identical,uniform,1,1,f,46,0,0,0,46,0,0,46,46,46,0,0,0,0,46,46,0,0,46,46,46,27-10-22,27-10-22,14:55:24,Sun Nov 27 2022 14:55:24 GMT+0100 (Centraleuropæisk normaltid),The main experiment item,yes,0,0,/Users/ethan/Documents/GitHub/OpenSesame/Class1,0,0,0,no,mono,no,18,no,white,no,no,768,924,3.6.1,psycho,psycho,5,osweb,1.4.11,1,lemon,262,,0,f,m,m,a,f,f,1312,4309482,1119,1840,1026,1312,2,psycho,672,1280,24,720,24,-7,-7,1280,1669557156776,1024,2,48000,-16,experiment,0,even,Win32,lemon,4408693,57,57,57,4407395,44,4407939,4408593,4318879,57,4309576,4310705,4325454,4408743,4410057,57,4408643,4408743,ExPsyLing2022_Class1,46,33158,47,fruit_veg,yes,1024
98,98,705,705,black,no,block2,2,Mozilla,Netscape,5.0 (Windows),psycho,psycho,psycho,0,identical,uniform,1,1,a,47,0,0,0,47,0,0,47,47,47,0,0,0,0,47,47,0,0,47,47,47,27-10-22,27-10-22,14:55:24,Sun Nov 27 2022 14:55:24 GMT+0100 (Centraleuropæisk normaltid),The main experiment item,yes,0,0,/Users/ethan/Documents/GitHub/OpenSesame/Class1,0,0,0,no,mono,no,18,no,white,no,no,768,924,3.6.1,psycho,psycho,6,osweb,1.4.11,1,wombat,262,,0,a,m,m,a,f,a,699,4309482,1119,1840,1026,699,2,psycho,672,1280,24,720,24,-7,-7,1280,1669557156776,1024,2,48000,-16,experiment,0,even,Win32,wombat,4411375,57,57,57,4410062,44,4410612,4411276,4318879,57,4309576,4310705,4325454,4411426,4412139,57,4411326,4411426,ExPsyLing2022_Class1,47,33857,48,animal,yes,1024
98,98,716,716,black,no,block2,2,Mozilla,Netscape,5.0 (Windows),psycho,psycho,psycho,0,identical,uniform,1,1,f,48,0,0,0,48,0,0,48,48,48,0,0,0,0,48,48,0,0,48,48,48,27-10-22,27-10-22,14:55:24,Sun Nov 27 2022 14:55:24 GMT+0100 (Centraleuropæisk normaltid),The main experiment item,yes,0,0,/Users/ethan/Documents/GitHub/OpenSesame/Class1,0,0,0,no,mono,no,18,no,white,no,no,768,924,3.6.1,psycho,psycho,6,osweb,1.4.11,1,citrus,262,,0,f,m,m,a,f,f,1240,4309482,1119,1840,1026,1240,2,psycho,672,1280,24,720,24,-7,-7,1280,1669557156776,1024,2,48000,-16,experiment,0,even,Win32,citrus,4413426,57,57,57,4412143,44,4412681,4413342,4318879,57,4309576,4310705,4325454,4413475,4414721,57,4413391,4413475,ExPsyLing2022_Class1,48,35097,49,fruit_veg,yes,1024
96,96,730,730,black,no,block2,2,Mozilla,Netscape,5.0 (Windows),psycho,psycho,psycho,0,semi-scrambled,uniform,0,0,a,49,0,0,0,49,0,0,49,49,49,0,0,0,0,49,49,0,0,49,49,49,27-10-22,27-10-22,14:55:24,Sun Nov 27 2022 14:55:24 GMT+0100 (Centraleuropæisk normaltid),The main experiment item,yes,0,0,/Users/ethan/Documents/GitHub/OpenSesame/Class1,0,0,0,no,mono,no,18,no,white,no,no,768,924,3.6.1,psycho,psycho,8,osweb,1.4.11,1,pylaputs,262,,0,f,m,m,a,f,f,1421,4309482,1119,1840,1026,1421,2,psycho,672,1280,24,720,24,-7,-7,1280,1669557156776,1024,2,48000,-16,experiment,0,even,Win32,platypus,4416040,57,57,57,4414725,44,4415272,4415940,4318879,57,4309576,4310705,4325454,4416090,4417520,57,4415991,4416090,ExPsyLing2022_Class1,48,36518,50,animal,yes,1024
96,96,728,728,black,no,block2,2,Mozilla,Netscape,5.0 (Windows),psycho,psycho,psycho,0,semi-scrambled,uniform,1,1,a,50,0,0,0,50,0,0,50,50,50,0,0,0,0,50,50,0,0,50,50,50,27-10-22,27-10-22,14:55:24,Sun Nov 27 2022 14:55:24 GMT+0100 (Centraleuropæisk normaltid),The main experiment item,yes,0,0,/Users/ethan/Documents/GitHub/OpenSesame/Class1,0,0,0,no,mono,no,18,no,white,no,no,768,924,3.6.1,psycho,psycho,4,osweb,1.4.11,1,gaot,262,,0,a,m,m,a,f,a,616,4309482,1119,1840,1026,616,2,psycho,672,1280,24,720,24,-7,-7,1280,1669557156776,1024,2,48000,-16,experiment,0,even,Win32,goat,4418806,57,57,57,4414725,44,4418062,4418723,4417525,57,4309576,4310705,4325454,4418856,4419486,57,4418772,4418856,ExPsyLing2022_Class1,49,37134,51,animal,yes,1024
96,96,727,727,black,no,block2,2,Mozilla,Netscape,5.0 (Windows),psycho,psycho,psycho,0,fully-scrambled,uniform,1,1,f,51,0,0,0,51,0,0,51,51,51,0,0,0,0,51,51,0,0,51,51,51,27-10-22,27-10-22,14:55:24,Sun Nov 27 2022 14:55:24 GMT+0100 (Centraleuropæisk normaltid),The main experiment item,yes,0,0,/Users/ethan/Documents/GitHub/OpenSesame/Class1,0,0,0,no,mono,no,18,no,white,no,no,768,924,3.6.1,psycho,psycho,5,osweb,1.4.11,1,cpeha,262,,0,f,m,m,a,f,f,686,4309482,1119,1840,1026,686,2,psycho,672,1280,24,720,24,-7,-7,1280,1669557156776,1024,2,48000,-16,experiment,0,even,Win32,peach,4420788,57,57,57,4419490,44,4420029,4420689,4417525,57,4309576,4310705,4325454,4420838,4421535,57,4420739,4420838,ExPsyLing2022_Class1,50,37820,52,fruit_veg,yes,1024
96,96,726,726,black,no,block2,2,Mozilla,Netscape,5.0 (Windows),psycho,psycho,psycho,0,identical,uniform,1,1,f,52,0,0,0,52,0,0,52,52,52,0,0,0,0,52,52,0,0,52,52,52,27-10-22,27-10-22,14:55:24,Sun Nov 27 2022 14:55:24 GMT+0100 (Centraleuropæisk normaltid),The main experiment item,yes,0,0,/Users/ethan/Documents/GitHub/OpenSesame/Class1,0,0,0,no,mono,no,18,no,white,no,no,768,924,3.6.1,psycho,psycho,4,osweb,1.4.11,1,kale,262,,0,f,m,m,a,f,f,655,4309482,1119,1840,1026,655,2,psycho,672,1280,24,720,24,-7,-7,1280,1669557156776,1024,2,48000,-16,experiment,0,even,Win32,kale,4422822,57,57,57,4421540,44,4422079,4422738,4417525,57,4309576,4310705,4325454,4422871,4423534,57,4422787,4422871,ExPsyLing2022_Class1,51,38475,53,fruit_veg,yes,1024
96,96,726,726,black,no,block2,2,Mozilla,Netscape,5.0 (Windows),psycho,psycho,psycho,0,identical,uniform,1,1,f,53,0,0,0,53,0,0,53,53,53,0,0,0,0,53,53,0,0,53,53,53,27-10-22,27-10-22,14:55:24,Sun Nov 27 2022 14:55:24 GMT+0100 (Centraleuropæisk normaltid),The main experiment item,yes,0,0,/Users/ethan/Documents/GitHub/OpenSesame/Class1,0,0,0,no,mono,no,18,no,white,no,no,768,924,3.6.1,psycho,psycho,4,osweb,1.4.11,1,pear,262,,0,f,m,m,a,f,f,742,4309482,1119,1840,1026,742,2,psycho,672,1280,24,720,24,-7,-7,1280,1669557156776,1024,2,48000,-16,experiment,0,even,Win32,pear,4424837,57,57,57,4423539,44,4424078,4424737,4417525,57,4309576,4310705,4325454,4424887,4425634,57,4424787,4424887,ExPsyLing2022_Class1,52,39217,54,fruit_veg,yes,1024
96,96,727,727,black,no,block2,2,Mozilla,Netscape,5.0 (Windows),psycho,psycho,psycho,0,identical,uniform,1,1,a,54,0,0,0,54,0,0,54,54,54,0,0,0,0,54,54,0,0,54,54,54,27-10-22,27-10-22,14:55:24,Sun Nov 27 2022 14:55:24 GMT+0100 (Centraleuropæisk normaltid),The main experiment item,yes,0,0,/Users/ethan/Documents/GitHub/OpenSesame/Class1,0,0,0,no,mono,no,18,no,white,no,no,768,924,3.6.1,psycho,psycho,6,osweb,1.4.11,1,donkey,262,,0,a,m,m,a,f,a,783,4309482,1119,1840,1026,783,2,psycho,672,1280,24,720,24,-7,-7,1280,1669557156776,1024,2,48000,-16,experiment,0,even,Win32,donkey,4426920,57,57,57,4425638,44,4426178,4426836,4417525,57,4309576,4310705,4325454,4426969,4427766,57,4426885,4426969,ExPsyLing2022_Class1,53,40000,55,animal,yes,1024
96,96,735,735,black,no,block2,2,Mozilla,Netscape,5.0 (Windows),psycho,psycho,psycho,0,fully-scrambled,uniform,1,1,f,55,0,0,0,55,0,0,55,55,55,0,0,0,0,55,55,0,0,55,55,55,27-10-22,27-10-22,14:55:24,Sun Nov 27 2022 14:55:24 GMT+0100 (Centraleuropæisk normaltid),The main experiment item,yes,0,0,/Users/ethan/Documents/GitHub/OpenSesame/Class1,0,0,0,no,mono,no,18,no,white,no,no,768,924,3.6.1,psycho,psycho,8,osweb,1.4.11,1,genlgtpa,262,,0,f,m,m,a,f,f,1145,4309482,1119,1840,1026,1145,2,psycho,672,1280,24,720,24,-7,-7,1280,1669557156776,1024,2,48000,-16,experiment,0,even,Win32,eggplant,4429068,57,57,57,4427771,44,4428309,4428968,4417525,57,4309576,4310705,4325454,4429118,4430265,57,4429019,4429118,ExPsyLing2022_Class1,54,41145,56,fruit_veg,yes,1024
96,96,734,734,black,no,block2,2,Mozilla,Netscape,5.0 (Windows),psycho,psycho,psycho,0,semi-scrambled,uniform,1,1,a,56,0,0,0,56,0,0,56,56,56,0,0,0,0,56,56,0,0,56,56,56,27-10-22,27-10-22,14:55:24,Sun Nov 27 2022 14:55:24 GMT+0100 (Centraleuropæisk normaltid),The main experiment item,yes,0,0,/Users/ethan/Documents/GitHub/OpenSesame/Class1,0,0,0,no,mono,no,18,no,white,no,no,768,924,3.6.1,psycho,psycho,4,osweb,1.4.11,1,loin,262,,0,a,m,m,a,f,a,700,4309482,1119,1840,1026,700,2,psycho,672,1280,24,720,24,-7,-7,1280,1669557156776,1024,2,48000,-16,experiment,0,even,Win32,lion,4431567,57,57,57,4430270,44,4430812,4431468,4417525,57,4309576,4310705,4325454,4431617,4432331,57,4431518,4431617,ExPsyLing2022_Class1,55,41845,57,animal,yes,1024
97,97,740,740,black,no,block2,2,Mozilla,Netscape,5.0 (Windows),psycho,psycho,psycho,0,fully-scrambled,uniform,1,1,a,57,0,0,0,57,0,0,57,57,57,0,0,0,0,57,57,0,0,57,57,57,27-10-22,27-10-22,14:55:24,Sun Nov 27 2022 14:55:24 GMT+0100 (Centraleuropæisk normaltid),The main experiment item,yes,0,0,/Users/ethan/Documents/GitHub/OpenSesame/Class1,0,0,0,no,mono,no,18,no,white,no,no,768,924,3.6.1,psycho,psycho,4,osweb,1.4.11,1,ehar,262,,0,a,m,m,a,f,a,1101,4309482,1119,1840,1026,1101,2,psycho,672,1280,24,720,24,-7,-7,1280,1669557156776,1024,2,48000,-16,experiment,0,even,Win32,hare,4433632,57,57,57,4432336,44,4432871,4433533,4417525,57,4309576,4310705,4325454,4433686,4434796,57,4433583,4433686,ExPsyLing2022_Class1,56,42946,58,animal,yes,1024
97,97,742,742,black,no,block2,2,Mozilla,Netscape,5.0 (Windows),psycho,psycho,psycho,0,semi-scrambled,uniform,1,1,f,58,0,0,0,58,0,0,58,58,58,0,0,0,0,58,58,0,0,58,58,58,27-10-22,27-10-22,14:55:24,Sun Nov 27 2022 14:55:24 GMT+0100 (Centraleuropæisk normaltid),The main experiment item,yes,0,0,/Users/ethan/Documents/GitHub/OpenSesame/Class1,0,0,0,no,mono,no,18,no,white,no,no,768,924,3.6.1,psycho,psycho,7,osweb,1.4.11,1,piukpmn,262,,0,f,m,m,a,f,f,825,4309482,1119,1840,1026,825,2,psycho,672,1280,24,720,24,-7,-7,1280,1669557156776,1024,2,48000,-16,experiment,0,even,Win32,pumpkin,4436083,57,57,57,4434801,44,4435337,4435999,4417525,57,4309576,4310705,4325454,4436132,4436962,57,4436048,4436132,ExPsyLing2022_Class1,57,43771,59,fruit_veg,yes,1024
97,97,743,743,black,no,block2,2,Mozilla,Netscape,5.0 (Windows),psycho,psycho,psycho,0,semi-scrambled,uniform,1,1,a,59,0,0,0,59,0,0,59,59,59,0,0,0,0,59,59,0,0,59,59,59,27-10-22,27-10-22,14:55:24,Sun Nov 27 2022 14:55:24 GMT+0100 (Centraleuropæisk normaltid),The main experiment item,yes,0,0,/Users/ethan/Documents/GitHub/OpenSesame/Class1,0,0,0,no,mono,no,18,no,white,no,no,768,924,3.6.1,psycho,psycho,8,osweb,1.4.11,1,fgliamno,262,,0,a,m,m,a,f,a,833,4309482,1119,1840,1026,833,2,psycho,672,1280,24,720,24,-7,-7,1280,1669557156776,1024,2,48000,-16,experiment,0,even,Win32,flamingo,4438248,57,57,57,4436966,44,4437502,4438164,4417525,57,4309576,4310705,4325454,4438298,4439144,57,4438214,4438298,ExPsyLing2022_Class1,58,44604,60,animal,yes,1024
97,97,743,743,black,no,block2,2,Mozilla,Netscape,5.0 (Windows),psycho,psycho,psycho,0,identical,uniform,1,1,a,60,0,0,0,60,0,0,60,60,60,0,0,0,0,60,60,0,0,60,60,60,27-10-22,27-10-22,14:55:24,Sun Nov 27 2022 14:55:24 GMT+0100 (Centraleuropæisk normaltid),The main experiment item,yes,0,0,/Users/ethan/Documents/GitHub/OpenSesame/Class1,0,0,0,no,mono,no,18,no,white,no,no,768,924,3.6.1,psycho,psycho,4,osweb,1.4.11,1,lamb,262,,0,a,m,m,a,f,a,716,4309482,1119,1840,1026,716,2,psycho,672,1280,24,720,24,-7,-7,1280,1669557156776,1024,2,48000,-16,experiment,0,even,Win32,lamb,4440431,57,57,57,4439149,44,4439685,4440347,4417525,57,4309576,4310705,4325454,4440480,4441210,57,4440396,4440480,ExPsyLing2022_Class1,59,45320,61,animal,yes,1024
95,95,747,747,black,no,block2,2,Mozilla,Netscape,5.0 (Windows),psycho,psycho,psycho,0,identical,uniform,0,0,f,61,0,0,0,61,0,0,61,61,61,0,0,0,0,61,61,0,0,61,61,61,27-10-22,27-10-22,14:55:24,Sun Nov 27 2022 14:55:24 GMT+0100 (Centraleuropæisk normaltid),The main experiment item,yes,0,0,/Users/ethan/Documents/GitHub/OpenSesame/Class1,0,0,0,no,mono,no,18,no,white,no,no,768,924,3.6.1,psycho,psycho,8,osweb,1.4.11,1,scallion,262,,0,a,m,m,a,f,a,995,4309482,1119,1840,1026,995,2,psycho,672,1280,24,720,24,-7,-7,1280,1669557156776,1024,2,48000,-16,experiment,0,even,Win32,scallion,4442512,57,57,57,4441215,44,4441752,4442413,4417525,57,4309576,4310705,4325454,4442563,4443560,57,4442463,4442563,ExPsyLing2022_Class1,59,46315,62,fruit_veg,yes,1024
94,94,745,745,black,no,block2,2,Mozilla,Netscape,5.0 (Windows),psycho,psycho,psycho,0,semi-scrambled,uniform,0,0,f,62,0,0,0,62,0,0,62,62,62,0,0,0,0,62,62,0,0,62,62,62,27-10-22,27-10-22,14:55:24,Sun Nov 27 2022 14:55:24 GMT+0100 (Centraleuropæisk normaltid),The main experiment item,yes,0,0,/Users/ethan/Documents/GitHub/OpenSesame/Class1,0,0,0,no,mono,no,18,no,white,no,no,768,924,3.6.1,psycho,psycho,8,osweb,1.4.11,1,ccbmeuur,262,,0,a,m,m,a,f,a,611,4309482,1119,1840,1026,611,2,psycho,672,1280,24,720,24,-7,-7,1280,1669557156776,1024,2,48000,-16,experiment,0,even,Win32,cucumber,4444846,57,57,57,4441215,44,4444100,4444762,4443564,57,4309576,4310705,4325454,4444895,4445509,57,4444812,4444895,ExPsyLing2022_Class1,59,46926,63,fruit_veg,yes,1024
94,94,742,742,black,no,block2,2,Mozilla,Netscape,5.0 (Windows),psycho,psycho,psycho,0,identical,uniform,1,1,f,63,0,0,0,63,0,0,63,63,63,0,0,0,0,63,63,0,0,63,63,63,27-10-22,27-10-22,14:55:24,Sun Nov 27 2022 14:55:24 GMT+0100 (Centraleuropæisk normaltid),The main experiment item,yes,0,0,/Users/ethan/Documents/GitHub/OpenSesame/Class1,0,0,0,no,mono,no,18,no,white,no,no,768,924,3.6.1,psycho,psycho,6,osweb,1.4.11,1,garlic,262,,0,f,m,m,a,f,f,530,4309482,1119,1840,1026,530,2,psycho,672,1280,24,720,24,-7,-7,1280,1669557156776,1024,2,48000,-16,experiment,0,even,Win32,garlic,4446811,57,57,57,4441215,44,4446050,4446711,4445513,57,4309576,4310705,4325454,4446861,4447391,57,4446761,4446861,ExPsyLing2022_Class1,60,47456,64,fruit_veg,yes,1024
94,94,739,739,black,no,block2,2,Mozilla,Netscape,5.0 (Windows),psycho,psycho,psycho,0,semi-scrambled,uniform,1,1,a,64,0,0,0,64,0,0,64,64,64,0,0,0,0,64,64,0,0,64,64,64,27-10-22,27-10-22,14:55:24,Sun Nov 27 2022 14:55:24 GMT+0100 (Centraleuropæisk normaltid),The main experiment item,yes,0,0,/Users/ethan/Documents/GitHub/OpenSesame/Class1,0,0,0,no,mono,no,18,no,white,no,no,768,924,3.6.1,psycho,psycho,6,osweb,1.4.11,1,wualrs,262,,0,a,m,m,a,f,a,572,4309482,1119,1840,1026,572,2,psycho,672,1280,24,720,24,-7,-7,1280,1669557156776,1024,2,48000,-16,experiment,0,even,Win32,walrus,4448692,57,57,57,4447395,44,4447935,4448594,4445513,57,4309576,4310705,4325454,4448744,4449323,57,4448644,4448744,ExPsyLing2022_Class1,61,48028,65,animal,yes,1024
94,94,736,736,black,no,block2,2,Mozilla,Netscape,5.0 (Windows),psycho,psycho,psycho,0,identical,uniform,1,1,f,65,0,0,0,65,0,0,65,65,65,0,0,0,0,65,65,0,0,65,65,65,27-10-22,27-10-22,14:55:24,Sun Nov 27 2022 14:55:24 GMT+0100 (Centraleuropæisk normaltid),The main experiment item,yes,0,0,/Users/ethan/Documents/GitHub/OpenSesame/Class1,0,0,0,no,mono,no,18,no,white,no,no,768,924,3.6.1,psycho,psycho,6,osweb,1.4.11,1,potato,262,,0,f,m,m,a,f,f,518,4309482,1119,1840,1026,518,2,psycho,672,1280,24,720,24,-7,-7,1280,1669557156776,1024,2,48000,-16,experiment,0,even,Win32,potato,4450610,57,57,57,4449328,44,4449865,4450526,4445513,57,4309576,4310705,4325454,4450659,4451190,57,4450576,4450659,ExPsyLing2022_Class1,62,48546,66,fruit_veg,yes,1024
94,94,733,733,black,no,block2,2,Mozilla,Netscape,5.0 (Windows),psycho,psycho,psycho,0,fully-scrambled,uniform,1,1,f,66,0,0,0,66,0,0,66,66,66,0,0,0,0,66,66,0,0,66,66,66,27-10-22,27-10-22,14:55:24,Sun Nov 27 2022 14:55:24 GMT+0100 (Centraleuropæisk normaltid),The main experiment item,yes,0,0,/Users/ethan/Documents/GitHub/OpenSesame/Class1,0,0,0,no,mono,no,18,no,white,no,no,768,924,3.6.1,psycho,psycho,6,osweb,1.4.11,1,hcreyr,262,,0,f,m,m,a,f,f,581,4309482,1119,1840,1026,581,2,psycho,672,1280,24,720,24,-7,-7,1280,1669557156776,1024,2,48000,-16,experiment,0,even,Win32,cherry,4452492,57,57,57,4451194,44,4451728,4452392,4445513,57,4309576,4310705,4325454,4452542,4453140,57,4452442,4452542,ExPsyLing2022_Class1,63,49127,67,fruit_veg,yes,1024
94,94,734,734,black,no,block2,2,Mozilla,Netscape,5.0 (Windows),psycho,psycho,psycho,0,identical,uniform,1,1,a,67,0,0,0,67,0,0,67,67,67,0,0,0,0,67,67,0,0,67,67,67,27-10-22,27-10-22,14:55:24,Sun Nov 27 2022 14:55:24 GMT+0100 (Centraleuropæisk normaltid),The main experiment item,yes,0,0,/Users/ethan/Documents/GitHub/OpenSesame/Class1,0,0,0,no,mono,no,18,no,white,no,no,768,924,3.6.1,psycho,psycho,8,osweb,1.4.11,1,seahorse,262,,0,a,m,m,a,f,a,785,4309482,1119,1840,1026,785,2,psycho,672,1280,24,720,24,-7,-7,1280,1669557156776,1024,2,48000,-16,experiment,0,even,Win32,seahorse,4454424,57,57,57,4453143,44,4453681,4454342,4445513,57,4309576,4310705,4325454,4454475,4455272,57,4454390,4454475,ExPsyLing2022_Class1,64,49912,68,animal,yes,1024
94,94,732,732,black,no,block2,2,Mozilla,Netscape,5.0 (Windows),psycho,psycho,psycho,0,fully-scrambled,uniform,1,1,a,68,0,0,0,68,0,0,68,68,68,0,0,0,0,68,68,0,0,68,68,68,27-10-22,27-10-22,14:55:24,Sun Nov 27 2022 14:55:24 GMT+0100 (Centraleuropæisk normaltid),The main experiment item,yes,0,0,/Users/ethan/Documents/GitHub/OpenSesame/Class1,0,0,0,no,mono,no,18,no,white,no,no,768,924,3.6.1,psycho,psycho,7,osweb,1.4.11,1,louaffb,262,,0,a,m,m,a,f,a,610,4309482,1119,1840,1026,610,2,psycho,672,1280,24,720,24,-7,-7,1280,1669557156776,1024,2,48000,-16,experiment,0,even,Win32,buffalo,4456574,57,57,57,4455275,44,4455811,4456474,4445513,57,4309576,4310705,4325454,4456624,4457238,57,4456524,4456624,ExPsyLing2022_Class1,65,50522,69,animal,yes,1024
94,94,730,730,black,no,block2,2,Mozilla,Netscape,5.0 (Windows),psycho,psycho,psycho,0,fully-scrambled,uniform,1,1,f,69,0,0,0,69,0,0,69,69,69,0,0,0,0,69,69,0,0,69,69,69,27-10-22,27-10-22,14:55:24,Sun Nov 27 2022 14:55:24 GMT+0100 (Centraleuropæisk normaltid),The main experiment item,yes,0,0,/Users/ethan/Documents/GitHub/OpenSesame/Class1,0,0,0,no,mono,no,18,no,white,no,no,768,924,3.6.1,psycho,psycho,7,osweb,1.4.11,1,panhcsi,262,,0,f,m,m,a,f,f,558,4309482,1119,1840,1026,558,2,psycho,672,1280,24,720,24,-7,-7,1280,1669557156776,1024,2,48000,-16,experiment,0,even,Win32,spinach,4458523,57,57,57,4457241,44,4457779,4458439,4445513,57,4309576,4310705,4325454,4458571,4459137,57,4458489,4458571,ExPsyLing2022_Class1,66,51080,70,fruit_veg,yes,1024
93,93,728,728,black,no,block2,2,Mozilla,Netscape,5.0 (Windows),psycho,psycho,psycho,0,fully-scrambled,uniform,0,0,f,70,0,0,0,70,0,0,70,70,70,0,0,0,0,70,70,0,0,70,70,70,27-10-22,27-10-22,14:55:24,Sun Nov 27 2022 14:55:24 GMT+0100 (Centraleuropæisk normaltid),The main experiment item,yes,0,0,/Users/ethan/Documents/GitHub/OpenSesame/Class1,0,0,0,no,mono,no,18,no,white,no,no,768,924,3.6.1,psycho,psycho,5,osweb,1.4.11,1,alagi,262,,0,a,m,m,a,f,a,631,4309482,1119,1840,1026,631,2,psycho,672,1280,24,720,24,-7,-7,1280,1669557156776,1024,2,48000,-16,experiment,0,even,Win32,galia,4460439,57,57,57,4459141,44,4459675,4460339,4445513,57,4309576,4310705,4325454,4460489,4461136,57,4460389,4460489,ExPsyLing2022_Class1,66,51711,71,fruit_veg,yes,1024
93,93,726,726,black,no,block2,2,Mozilla,Netscape,5.0 (Windows),psycho,psycho,psycho,0,identical,uniform,1,1,a,71,0,0,0,71,0,0,71,71,71,0,0,0,0,71,71,0,0,71,71,71,27-10-22,27-10-22,14:55:24,Sun Nov 27 2022 14:55:24 GMT+0100 (Centraleuropæisk normaltid),The main experiment item,yes,0,0,/Users/ethan/Documents/GitHub/OpenSesame/Class1,0,0,0,no,mono,no,18,no,white,no,no,768,924,3.6.1,psycho,psycho,7,osweb,1.4.11,1,hamster,262,,0,a,m,m,a,f,a,584,4309482,1119,1840,1026,584,2,psycho,672,1280,24,720,24,-7,-7,1280,1669557156776,1024,2,48000,-16,experiment,0,even,Win32,hamster,4462440,57,57,57,4459141,44,4461672,4462340,4461140,57,4309576,4310705,4325454,4462490,4463085,57,4462390,4462490,ExPsyLing2022_Class1,67,52295,72,animal,yes,1024
93,93,726,726,black,no,block2,2,Mozilla,Netscape,5.0 (Windows),psycho,psycho,psycho,0,fully-scrambled,uniform,1,1,f,72,0,0,0,72,0,0,72,72,72,0,0,0,0,72,72,0,0,72,72,72,27-10-22,27-10-22,14:55:24,Sun Nov 27 2022 14:55:24 GMT+0100 (Centraleuropæisk normaltid),The main experiment item,yes,0,0,/Users/ethan/Documents/GitHub/OpenSesame/Class1,0,0,0,no,mono,no,18,no,white,no,no,768,924,3.6.1,psycho,psycho,8,osweb,1.4.11,1,srommhuo,262,,0,f,m,m,a,f,f,707,4309482,1119,1840,1026,707,2,psycho,672,1280,24,720,24,-7,-7,1280,1669557156776,1024,2,48000,-16,experiment,0,even,Win32,mushroom,4464390,57,57,57,4463095,44,4463636,4464305,4461140,57,4309576,4310705,4325454,4464441,4465151,57,4464354,4464441,ExPsyLing2022_Class1,68,53002,73,fruit_veg,yes,1024
93,93,726,726,black,no,block2,2,Mozilla,Netscape,5.0 (Windows),psycho,psycho,psycho,0,semi-scrambled,uniform,1,1,a,73,0,0,0,73,0,0,73,73,73,0,0,0,0,73,73,0,0,73,73,73,27-10-22,27-10-22,14:55:24,Sun Nov 27 2022 14:55:24 GMT+0100 (Centraleuropæisk normaltid),The main experiment item,yes,0,0,/Users/ethan/Documents/GitHub/OpenSesame/Class1,0,0,0,no,mono,no,18,no,white,no,no,768,924,3.6.1,psycho,psycho,5,osweb,1.4.11,1,boisn,262,,0,a,m,m,a,f,a,737,4309482,1119,1840,1026,737,2,psycho,672,1280,24,720,24,-7,-7,1280,1669557156776,1024,2,48000,-16,experiment,0,even,Win32,bison,4466454,57,57,57,4465158,44,4465699,4466353,4461140,57,4309576,4310705,4325454,4466504,4467251,57,4466404,4466504,ExPsyLing2022_Class1,69,53739,74,animal,yes,1024
93,93,724,724,black,no,block2,2,Mozilla,Netscape,5.0 (Windows),psycho,psycho,psycho,0,fully-scrambled,uniform,1,1,f,74,0,0,0,74,0,0,74,74,74,0,0,0,0,74,74,0,0,74,74,74,27-10-22,27-10-22,14:55:24,Sun Nov 27 2022 14:55:24 GMT+0100 (Centraleuropæisk normaltid),The main experiment item,yes,0,0,/Users/ethan/Documents/GitHub/OpenSesame/Class1,0,0,0,no,mono,no,18,no,white,no,no,768,924,3.6.1,psycho,psycho,7,osweb,1.4.11,1,tleutec,262,,0,f,m,m,a,f,f,574,4309482,1119,1840,1026,574,2,psycho,672,1280,24,720,24,-7,-7,1280,1669557156776,1024,2,48000,-16,experiment,0,even,Win32,lettuce,4468570,57,57,57,4467256,44,4467800,4468470,4461140,57,4309576,4310705,4325454,4468619,4469200,57,4468520,4468619,ExPsyLing2022_Class1,70,54313,75,fruit_veg,yes,1024
93,93,724,724,black,no,block2,2,Mozilla,Netscape,5.0 (Windows),psycho,psycho,psycho,0,fully-scrambled,uniform,1,1,a,75,0,0,0,75,0,0,75,75,75,0,0,0,0,75,75,0,0,75,75,75,27-10-22,27-10-22,14:55:24,Sun Nov 27 2022 14:55:24 GMT+0100 (Centraleuropæisk normaltid),The main experiment item,yes,0,0,/Users/ethan/Documents/GitHub/OpenSesame/Class1,0,0,0,no,mono,no,18,no,white,no,no,768,924,3.6.1,psycho,psycho,7,osweb,1.4.11,1,rgolial,262,,0,a,m,m,a,f,a,686,4309482,1119,1840,1026,686,2,psycho,672,1280,24,720,24,-7,-7,1280,1669557156776,1024,2,48000,-16,experiment,0,even,Win32,gorilla,4470486,57,57,57,4469204,44,4469748,4470402,4461140,57,4309576,4310705,4325454,4470535,4471232,57,4470452,4470535,ExPsyLing2022_Class1,71,54999,76,animal,yes,1024
92,92,722,722,black,no,block2,2,Mozilla,Netscape,5.0 (Windows),psycho,psycho,psycho,0,identical,uniform,0,0,a,76,0,0,0,76,0,0,76,76,76,0,0,0,0,76,76,0,0,76,76,76,27-10-22,27-10-22,14:55:24,Sun Nov 27 2022 14:55:24 GMT+0100 (Centraleuropæisk normaltid),The main experiment item,yes,0,0,/Users/ethan/Documents/GitHub/OpenSesame/Class1,0,0,0,no,mono,no,18,no,white,no,no,768,924,3.6.1,psycho,psycho,5,osweb,1.4.11,1,panda,262,,0,f,m,m,a,f,f,567,4309482,1119,1840,1026,567,2,psycho,672,1280,24,720,24,-7,-7,1280,1669557156776,1024,2,48000,-16,experiment,0,even,Win32,panda,4472551,57,57,57,4471237,44,4471782,4472451,4461140,57,4309576,4310705,4325454,4472601,4473182,57,4472502,4472601,ExPsyLing2022_Class1,71,55566,77,animal,yes,1024
92,92,723,723,black,no,block2,2,Mozilla,Netscape,5.0 (Windows),psycho,psycho,psycho,0,semi-scrambled,uniform,1,1,f,77,0,0,0,77,0,0,77,77,77,0,0,0,0,77,77,0,0,77,77,77,27-10-22,27-10-22,14:55:24,Sun Nov 27 2022 14:55:24 GMT+0100 (Centraleuropæisk normaltid),The main experiment item,yes,0,0,/Users/ethan/Documents/GitHub/OpenSesame/Class1,0,0,0,no,mono,no,18,no,white,no,no,768,924,3.6.1,psycho,psycho,7,osweb,1.4.11,1,ccunoot,262,,0,f,m,m,a,f,f,799,4309482,1119,1840,1026,799,2,psycho,672,1280,24,720,24,-7,-7,1280,1669557156776,1024,2,48000,-16,experiment,0,even,Win32,coconut,4474468,57,57,57,4471237,44,4473727,4474383,4473187,57,4309576,4310705,4325454,4474517,4475331,57,4474433,4474517,ExPsyLing2022_Class1,72,56365,78,fruit_veg,yes,1024
92,92,721,721,black,no,block2,2,Mozilla,Netscape,5.0 (Windows),psycho,psycho,psycho,0,identical,uniform,1,1,a,78,0,0,0,78,0,0,78,78,78,0,0,0,0,78,78,0,0,78,78,78,27-10-22,27-10-22,14:55:24,Sun Nov 27 2022 14:55:24 GMT+0100 (Centraleuropæisk normaltid),The main experiment item,yes,0,0,/Users/ethan/Documents/GitHub/OpenSesame/Class1,0,0,0,no,mono,no,18,no,white,no,no,768,924,3.6.1,psycho,psycho,8,osweb,1.4.11,1,elephant,262,,0,a,m,m,a,f,a,589,4309482,1119,1840,1026,589,2,psycho,672,1280,24,720,24,-7,-7,1280,1669557156776,1024,2,48000,-16,experiment,0,even,Win32,elephant,4476617,57,57,57,4475335,44,4475868,4476533,4473187,57,4309576,4310705,4325454,4476666,4477263,57,4476582,4476666,ExPsyLing2022_Class1,73,56954,79,animal,yes,1024
93,93,722,722,black,no,block2,2,Mozilla,Netscape,5.0 (Windows),psycho,psycho,psycho,0,semi-scrambled,uniform,1,1,a,79,0,0,0,79,0,0,79,79,79,0,0,0,0,79,79,0,0,79,79,79,27-10-22,27-10-22,14:55:24,Sun Nov 27 2022 14:55:24 GMT+0100 (Centraleuropæisk normaltid),The main experiment item,yes,0,0,/Users/ethan/Documents/GitHub/OpenSesame/Class1,0,0,0,no,mono,no,18,no,white,no,no,768,924,3.6.1,psycho,psycho,7,osweb,1.4.11,1,rooaccn,262,,0,a,m,m,a,f,a,780,4309482,1119,1840,1026,780,2,psycho,672,1280,24,720,24,-7,-7,1280,1669557156776,1024,2,48000,-16,experiment,0,even,Win32,raccoon,4478550,57,57,57,4477268,44,4477806,4478466,4473187,57,4309576,4310705,4325454,4478599,4479395,57,4478515,4478599,ExPsyLing2022_Class1,74,57734,80,animal,yes,1024
91,91,721,721,black,no,block2,2,Mozilla,Netscape,5.0 (Windows),psycho,psycho,psycho,0,fully-scrambled,uniform,0,0,f,80,0,0,0,80,0,0,80,80,80,0,0,0,0,80,80,0,0,80,80,80,27-10-22,27-10-22,14:55:24,Sun Nov 27 2022 14:55:24 GMT+0100 (Centraleuropæisk normaltid),The main experiment item,yes,0,0,/Users/ethan/Documents/GitHub/OpenSesame/Class1,0,0,0,no,mono,no,18,no,white,no,no,768,924,3.6.1,psycho,psycho,8,osweb,1.4.11,1,ekahiccp,262,,0,a,m,m,a,f,a,672,4309482,1119,1840,1026,672,2,psycho,672,1280,24,720,24,-7,-7,1280,1669557156776,1024,2,48000,-16,experiment,0,even,Win32,chickpea,4480698,57,57,57,4479401,44,4479939,4480597,4473187,57,4309576,4310705,4325454,4480747,4481428,57,4480648,4480747,ExPsyLing2022_Class1,74,58406,81,fruit_veg,yes,1024
91,91,721,721,black,no,block2,2,Mozilla,Netscape,5.0 (Windows),psycho,psycho,psycho,0,fully-scrambled,uniform,1,1,a,81,0,0,0,81,0,0,81,81,81,0,0,0,0,81,81,0,0,81,81,81,27-10-22,27-10-22,14:55:24,Sun Nov 27 2022 14:55:24 GMT+0100 (Centraleuropæisk normaltid),The main experiment item,yes,0,0,/Users/ethan/Documents/GitHub/OpenSesame/Class1,0,0,0,no,mono,no,18,no,white,no,no,768,924,3.6.1,psycho,psycho,4,osweb,1.4.11,1,imkn,262,,0,a,m,m,a,f,a,745,4309482,1119,1840,1026,745,2,psycho,672,1280,24,720,24,-7,-7,1280,1669557156776,1024,2,48000,-16,experiment,0,even,Win32,mink,4482714,57,57,57,4479401,44,4481971,4482631,4481432,57,4309576,4310705,4325454,4482764,4483510,57,4482680,4482763,ExPsyLing2022_Class1,75,59151,82,animal,yes,1024
92,92,720,720,black,no,block2,2,Mozilla,Netscape,5.0 (Windows),psycho,psycho,psycho,0,fully-scrambled,uniform,1,1,a,82,0,0,0,82,0,0,82,82,82,0,0,0,0,82,82,0,0,82,82,82,27-10-22,27-10-22,14:55:24,Sun Nov 27 2022 14:55:24 GMT+0100 (Centraleuropæisk normaltid),The main experiment item,yes,0,0,/Users/ethan/Documents/GitHub/OpenSesame/Class1,0,0,0,no,mono,no,18,no,white,no,no,768,924,3.6.1,psycho,psycho,5,osweb,1.4.11,1,reigt,262,,0,a,m,m,a,f,a,624,4309482,1119,1840,1026,624,2,psycho,672,1280,24,720,24,-7,-7,1280,1669557156776,1024,2,48000,-16,experiment,0,even,Win32,tiger,4484813,57,57,57,4483512,44,4484054,4484713,4481432,57,4309576,4310705,4325454,4484862,4485493,57,4484763,4484862,ExPsyLing2022_Class1,76,59775,83,animal,yes,1024
92,92,724,724,black,no,block2,2,Mozilla,Netscape,5.0 (Windows),psycho,psycho,psycho,0,fully-scrambled,uniform,1,1,f,83,0,0,0,83,0,0,83,83,83,0,0,0,0,83,83,0,0,83,83,83,27-10-22,27-10-22,14:55:24,Sun Nov 27 2022 14:55:24 GMT+0100 (Centraleuropæisk normaltid),The main experiment item,yes,0,0,/Users/ethan/Documents/GitHub/OpenSesame/Class1,0,0,0,no,mono,no,18,no,white,no,no,768,924,3.6.1,psycho,psycho,7,osweb,1.4.11,1,iotrapc,262,,0,f,m,m,a,f,f,1054,4309482,1119,1840,1026,1054,2,psycho,672,1280,24,720,24,-7,-7,1280,1669557156776,1024,2,48000,-16,experiment,0,even,Win32,apricot,4486795,57,57,57,4485497,44,4486036,4486696,4481432,57,4309576,4310705,4325454,4486846,4487909,57,4486745,4486846,ExPsyLing2022_Class1,77,60829,84,fruit_veg,yes,1024
91,91,724,724,black,no,block2,2,Mozilla,Netscape,5.0 (Windows),psycho,psycho,psycho,0,fully-scrambled,uniform,0,0,f,84,0,0,0,84,0,0,84,84,84,0,0,0,0,84,84,0,0,84,84,84,27-10-22,27-10-22,14:55:24,Sun Nov 27 2022 14:55:24 GMT+0100 (Centraleuropæisk normaltid),The main experiment item,yes,0,0,/Users/ethan/Documents/GitHub/OpenSesame/Class1,0,0,0,no,mono,no,18,no,white,no,no,768,924,3.6.1,psycho,psycho,4,osweb,1.4.11,1,naeb,262,,0,a,m,m,a,f,a,724,4309482,1119,1840,1026,724,2,psycho,672,1280,24,720,24,-7,-7,1280,1669557156776,1024,2,48000,-16,experiment,0,even,Win32,bean,4489211,57,57,57,4487913,44,4488452,4489111,4481432,57,4309576,4310705,4325454,4489261,4489991,57,4489161,4489260,ExPsyLing2022_Class1,77,61553,85,fruit_veg,yes,1024
91,91,723,723,black,no,block2,2,Mozilla,Netscape,5.0 (Windows),psycho,psycho,psycho,0,identical,uniform,1,1,a,85,0,0,0,85,0,0,85,85,85,0,0,0,0,85,85,0,0,85,85,85,27-10-22,27-10-22,14:55:24,Sun Nov 27 2022 14:55:24 GMT+0100 (Centraleuropæisk normaltid),The main experiment item,yes,0,0,/Users/ethan/Documents/GitHub/OpenSesame/Class1,0,0,0,no,mono,no,18,no,white,no,no,768,924,3.6.1,psycho,psycho,4,osweb,1.4.11,1,puma,262,,0,a,m,m,a,f,a,640,4309482,1119,1840,1026,640,2,psycho,672,1280,24,720,24,-7,-7,1280,1669557156776,1024,2,48000,-16,experiment,0,even,Win32,puma,4491294,57,57,57,4487913,44,4490541,4491210,4489993,57,4309576,4310705,4325454,4491344,4491991,57,4491260,4491344,ExPsyLing2022_Class1,78,62193,86,animal,yes,1024
100,100,647,647,black,no,practice,1,Mozilla,Netscape,"5.0 (Macintosh; Intel Mac OS X 10_15_7) AppleWebKit/605.1.15 (KHTML, like Gecko) Version/16.1 Safari/605.1.15",psycho,psycho,psycho,0,practice,uniform,1,1,f,0,0,0,0,0,0,0,0,0,0,0,0,0,0,0,0,0,0,0,0,0,27-10-22,27-10-22,11:49:53,Sun Nov 27 2022 11:49:53 GMT+0100 (Centraleuropæisk normaltid),The main experiment item,yes,0,0,/Users/ethan/Documents/GitHub/OpenSesame/Class1,0,0,0,no,mono,no,18,no,white,no,no,768,923,3.6.1,psycho,psycho,5,osweb,1.4.11,1,#####,262,,0,f,f,f,f,,f,647,26605,4180,3904,,647,2,psycho,875,1440,24,900,24,31,29,1440,1669546225993,1024,2,48000,-16,experiment,1,odd,MacIntel,apple,35572,50,50,50,,43,34803,35473,,50,26661,30858,,35623,36286,50,35523,35623,ExPsyLing2022_Class1,1,647,1,fruit_veg,yes,1024
100,100,634,634,black,no,practice,1,Mozilla,Netscape,"5.0 (Macintosh; Intel Mac OS X 10_15_7) AppleWebKit/605.1.15 (KHTML, like Gecko) Version/16.1 Safari/605.1.15",psycho,psycho,psycho,0,practice,uniform,1,1,a,1,0,0,0,1,0,0,1,1,1,0,0,0,0,1,1,0,0,1,1,1,27-10-22,27-10-22,11:49:53,Sun Nov 27 2022 11:49:53 GMT+0100 (Centraleuropæisk normaltid),The main experiment item,yes,0,0,/Users/ethan/Documents/GitHub/OpenSesame/Class1,0,0,0,no,mono,no,18,no,white,no,no,768,923,3.6.1,psycho,psycho,4,osweb,1.4.11,1,#####,262,,0,a,f,f,f,,a,621,26605,4180,3904,,621,2,psycho,875,1440,24,900,24,31,29,1440,1669546225993,1024,2,48000,-16,experiment,1,odd,MacIntel,wolf,37573,50,50,50,36292,43,36829,37490,,50,26661,30858,,37622,38253,50,37539,37622,ExPsyLing2022_Class1,2,1268,2,animal,yes,1024
100,100,622,622,black,no,practice,1,Mozilla,Netscape,"5.0 (Macintosh; Intel Mac OS X 10_15_7) AppleWebKit/605.1.15 (KHTML, like Gecko) Version/16.1 Safari/605.1.15",psycho,psycho,psycho,0,practice,uniform,1,1,f,2,0,0,0,2,0,0,2,2,2,0,0,0,0,2,2,0,0,2,2,2,27-10-22,27-10-22,11:49:53,Sun Nov 27 2022 11:49:53 GMT+0100 (Centraleuropæisk normaltid),The main experiment item,yes,0,0,/Users/ethan/Documents/GitHub/OpenSesame/Class1,0,0,0,no,mono,no,18,no,white,no,no,768,923,3.6.1,psycho,psycho,5,osweb,1.4.11,1,#####,262,,0,f,f,f,f,,f,598,26605,4180,3904,,598,2,psycho,875,1440,24,900,24,31,29,1440,1669546225993,1024,2,48000,-16,experiment,1,odd,MacIntel,melon,39539,50,50,50,38258,43,38793,39457,,50,26661,30858,,39589,40203,50,39505,39589,ExPsyLing2022_Class1,3,1866,3,fruit_veg,yes,1024
100,100,632,632,black,no,practice,1,Mozilla,Netscape,"5.0 (Macintosh; Intel Mac OS X 10_15_7) AppleWebKit/605.1.15 (KHTML, like Gecko) Version/16.1 Safari/605.1.15",psycho,psycho,psycho,0,practice,uniform,1,1,a,3,0,0,0,3,0,0,3,3,3,0,0,0,0,3,3,0,0,3,3,3,27-10-22,27-10-22,11:49:53,Sun Nov 27 2022 11:49:53 GMT+0100 (Centraleuropæisk normaltid),The main experiment item,yes,0,0,/Users/ethan/Documents/GitHub/OpenSesame/Class1,0,0,0,no,mono,no,18,no,white,no,no,768,923,3.6.1,psycho,psycho,5,osweb,1.4.11,1,#####,262,,0,a,f,f,f,,a,661,26605,4180,3904,,661,2,psycho,875,1440,24,900,24,31,29,1440,1669546225993,1024,2,48000,-16,experiment,1,odd,MacIntel,hound,41506,50,50,50,40208,43,40743,41408,,50,26661,30858,,41556,42219,50,41457,41556,ExPsyLing2022_Class1,4,2527,4,animal,yes,1024
100,100,630,630,black,no,practice,1,Mozilla,Netscape,"5.0 (Macintosh; Intel Mac OS X 10_15_7) AppleWebKit/605.1.15 (KHTML, like Gecko) Version/16.1 Safari/605.1.15",psycho,psycho,psycho,0,practice,uniform,1,1,f,4,0,0,0,4,0,0,4,4,4,0,0,0,0,4,4,0,0,4,4,4,27-10-22,27-10-22,11:49:53,Sun Nov 27 2022 11:49:53 GMT+0100 (Centraleuropæisk normaltid),The main experiment item,yes,0,0,/Users/ethan/Documents/GitHub/OpenSesame/Class1,0,0,0,no,mono,no,18,no,white,no,no,768,923,3.6.1,psycho,psycho,6,osweb,1.4.11,1,#####,262,,0,f,f,f,f,,f,625,26605,4180,3904,,625,2,psycho,875,1440,24,900,24,31,29,1440,1669546225993,1024,2,48000,-16,experiment,1,odd,MacIntel,tomato,43522,50,50,50,42224,43,42760,43423,,50,26661,30858,,43573,44203,50,43473,43573,ExPsyLing2022_Class1,5,3152,5,fruit_veg,yes,1024
100,100,616,616,black,no,practice,1,Mozilla,Netscape,"5.0 (Macintosh; Intel Mac OS X 10_15_7) AppleWebKit/605.1.15 (KHTML, like Gecko) Version/16.1 Safari/605.1.15",psycho,psycho,psycho,0,practice,uniform,1,1,a,5,0,0,0,5,0,0,5,5,5,0,0,0,0,5,5,0,0,5,5,5,27-10-22,27-10-22,11:49:53,Sun Nov 27 2022 11:49:53 GMT+0100 (Centraleuropæisk normaltid),The main experiment item,yes,0,0,/Users/ethan/Documents/GitHub/OpenSesame/Class1,0,0,0,no,mono,no,18,no,white,no,no,768,923,3.6.1,psycho,psycho,6,osweb,1.4.11,1,#####,262,,0,a,f,f,f,,a,544,26605,4180,3904,,544,2,psycho,875,1440,24,900,24,31,29,1440,1669546225993,1024,2,48000,-16,experiment,1,odd,MacIntel,spider,45505,50,50,50,44207,43,44742,45406,,50,26661,30858,,45555,46102,50,45456,45555,ExPsyLing2022_Class1,6,3696,6,animal,yes,1024
100,100,644,644,black,no,block1,1,Mozilla,Netscape,"5.0 (Macintosh; Intel Mac OS X 10_15_7) AppleWebKit/605.1.15 (KHTML, like Gecko) Version/16.1 Safari/605.1.15",psycho,psycho,psycho,0,identical,uniform,1,1,f,6,0,0,0,6,0,0,6,6,6,0,0,0,0,6,6,0,0,6,6,6,27-10-22,27-10-22,11:49:53,Sun Nov 27 2022 11:49:53 GMT+0100 (Centraleuropæisk normaltid),The main experiment item,yes,0,0,/Users/ethan/Documents/GitHub/OpenSesame/Class1,0,0,0,no,mono,no,18,no,white,no,no,768,923,3.6.1,psycho,psycho,7,osweb,1.4.11,1,apricot,262,,0,f,f,f,f,f,f,811,26605,4180,3904,12958,811,2,psycho,875,1440,24,900,24,31,29,1440,1669546225993,1024,2,48000,-16,experiment,1,odd,MacIntel,apricot,60372,50,50,50,46106,43,59607,60274,,50,26661,30858,46625,60422,61236,50,60322,60422,ExPsyLing2022_Class1,7,4507,7,fruit_veg,yes,1024
100,100,637,637,black,no,block1,1,Mozilla,Netscape,"5.0 (Macintosh; Intel Mac OS X 10_15_7) AppleWebKit/605.1.15 (KHTML, like Gecko) Version/16.1 Safari/605.1.15",psycho,psycho,psycho,0,semi-scrambled,uniform,1,1,a,7,0,0,0,7,0,0,7,7,7,0,0,0,0,7,7,0,0,7,7,7,27-10-22,27-10-22,11:49:53,Sun Nov 27 2022 11:49:53 GMT+0100 (Centraleuropæisk normaltid),The main experiment item,yes,0,0,/Users/ethan/Documents/GitHub/OpenSesame/Class1,0,0,0,no,mono,no,18,no,white,no,no,768,923,3.6.1,psycho,psycho,6,osweb,1.4.11,1,dekony,262,,0,a,f,f,f,f,a,588,26605,4180,3904,12958,588,2,psycho,875,1440,24,900,24,31,29,1440,1669546225993,1024,2,48000,-16,experiment,1,odd,MacIntel,donkey,62538,50,50,50,61239,43,61773,62439,,50,26661,30858,46625,62588,63186,50,62488,62588,ExPsyLing2022_Class1,8,5095,8,animal,yes,1024
100,100,633,633,black,no,block1,1,Mozilla,Netscape,"5.0 (Macintosh; Intel Mac OS X 10_15_7) AppleWebKit/605.1.15 (KHTML, like Gecko) Version/16.1 Safari/605.1.15",psycho,psycho,psycho,0,semi-scrambled,uniform,1,1,a,8,0,0,0,8,0,0,8,8,8,0,0,0,0,8,8,0,0,8,8,8,27-10-22,27-10-22,11:49:53,Sun Nov 27 2022 11:49:53 GMT+0100 (Centraleuropæisk normaltid),The main experiment item,yes,0,0,/Users/ethan/Documents/GitHub/OpenSesame/Class1,0,0,0,no,mono,no,18,no,white,no,no,768,923,3.6.1,psycho,psycho,8,osweb,1.4.11,1,shesaore,262,,0,a,f,f,f,f,a,605,26605,4180,3904,12958,605,2,psycho,875,1440,24,900,24,31,29,1440,1669546225993,1024,2,48000,-16,experiment,1,odd,MacIntel,seahorse,64471,50,50,50,63190,43,63725,64389,,50,26661,30858,46625,64521,65135,50,64438,64521,ExPsyLing2022_Class1,9,5700,9,animal,yes,1024
100,100,633,633,black,no,block1,1,Mozilla,Netscape,"5.0 (Macintosh; Intel Mac OS X 10_15_7) AppleWebKit/605.1.15 (KHTML, like Gecko) Version/16.1 Safari/605.1.15",psycho,psycho,psycho,0,fully-scrambled,uniform,1,1,f,9,0,0,0,9,0,0,9,9,9,0,0,0,0,9,9,0,0,9,9,9,27-10-22,27-10-22,11:49:53,Sun Nov 27 2022 11:49:53 GMT+0100 (Centraleuropæisk normaltid),The main experiment item,yes,0,0,/Users/ethan/Documents/GitHub/OpenSesame/Class1,0,0,0,no,mono,no,18,no,white,no,no,768,923,3.6.1,psycho,psycho,8,osweb,1.4.11,1,coblocir,262,,0,f,f,f,f,f,f,632,26605,4180,3904,12958,632,2,psycho,875,1440,24,900,24,31,29,1440,1669546225993,1024,2,48000,-16,experiment,1,odd,MacIntel,broccoli,66438,50,50,50,65139,43,65672,66339,,50,26661,30858,46625,66488,67135,50,66388,66488,ExPsyLing2022_Class1,10,6332,10,fruit_veg,yes,1024
100,100,634,634,black,no,block1,1,Mozilla,Netscape,"5.0 (Macintosh; Intel Mac OS X 10_15_7) AppleWebKit/605.1.15 (KHTML, like Gecko) Version/16.1 Safari/605.1.15",psycho,psycho,psycho,0,identical,uniform,1,1,a,10,0,0,0,10,0,0,10,10,10,0,0,0,0,10,10,0,0,10,10,10,27-10-22,27-10-22,11:49:53,Sun Nov 27 2022 11:49:53 GMT+0100 (Centraleuropæisk normaltid),The main experiment item,yes,0,0,/Users/ethan/Documents/GitHub/OpenSesame/Class1,0,0,0,no,mono,no,18,no,white,no,no,768,923,3.6.1,psycho,psycho,4,osweb,1.4.11,1,hare,262,,0,a,f,f,f,f,a,640,26605,4180,3904,12958,640,2,psycho,875,1440,24,900,24,31,29,1440,1669546225993,1024,2,48000,-16,experiment,1,odd,MacIntel,hare,68421,50,50,50,67139,43,67674,68339,,50,26661,30858,46625,68471,69119,50,68388,68471,ExPsyLing2022_Class1,11,6972,11,animal,yes,1024
100,100,669,669,black,no,block1,1,Mozilla,Netscape,"5.0 (Macintosh; Intel Mac OS X 10_15_7) AppleWebKit/605.1.15 (KHTML, like Gecko) Version/16.1 Safari/605.1.15",psycho,psycho,psycho,0,identical,uniform,1,1,a,11,0,0,0,11,0,0,11,11,11,0,0,0,0,11,11,0,0,11,11,11,27-10-22,27-10-22,11:49:53,Sun Nov 27 2022 11:49:53 GMT+0100 (Centraleuropæisk normaltid),The main experiment item,yes,0,0,/Users/ethan/Documents/GitHub/OpenSesame/Class1,0,0,0,no,mono,no,18,no,white,no,no,768,923,3.6.1,psycho,psycho,8,osweb,1.4.11,1,chipmunk,262,,0,a,f,f,f,f,a,1054,26605,4180,3904,12958,1054,2,psycho,875,1440,24,900,24,31,29,1440,1669546225993,1024,2,48000,-16,experiment,1,odd,MacIntel,chipmunk,70421,50,50,50,69123,43,69656,70322,,50,26661,30858,46625,70471,71535,50,70372,70471,ExPsyLing2022_Class1,12,8026,12,animal,yes,1024
100,100,663,663,black,no,block1,1,Mozilla,Netscape,"5.0 (Macintosh; Intel Mac OS X 10_15_7) AppleWebKit/605.1.15 (KHTML, like Gecko) Version/16.1 Safari/605.1.15",psycho,psycho,psycho,0,semi-scrambled,uniform,1,1,a,12,0,0,0,12,0,0,12,12,12,0,0,0,0,12,12,0,0,12,12,12,27-10-22,27-10-22,11:49:53,Sun Nov 27 2022 11:49:53 GMT+0100 (Centraleuropæisk normaltid),The main experiment item,yes,0,0,/Users/ethan/Documents/GitHub/OpenSesame/Class1,0,0,0,no,mono,no,18,no,white,no,no,768,923,3.6.1,psycho,psycho,4,osweb,1.4.11,1,lmab,262,,0,a,f,f,f,f,a,598,26605,4180,3904,12958,598,2,psycho,875,1440,24,900,24,31,29,1440,1669546225993,1024,2,48000,-16,experiment,1,odd,MacIntel,lamb,72820,50,50,50,71541,43,72073,72738,,50,26661,30858,46625,72871,73485,50,72787,72871,ExPsyLing2022_Class1,13,8624,13,animal,yes,1024
100,100,660,660,black,no,block1,1,Mozilla,Netscape,"5.0 (Macintosh; Intel Mac OS X 10_15_7) AppleWebKit/605.1.15 (KHTML, like Gecko) Version/16.1 Safari/605.1.15",psycho,psycho,psycho,0,semi-scrambled,uniform,1,1,f,13,0,0,0,13,0,0,13,13,13,0,0,0,0,13,13,0,0,13,13,13,27-10-22,27-10-22,11:49:53,Sun Nov 27 2022 11:49:53 GMT+0100 (Centraleuropæisk normaltid),The main experiment item,yes,0,0,/Users/ethan/Documents/GitHub/OpenSesame/Class1,0,0,0,no,mono,no,18,no,white,no,no,768,923,3.6.1,psycho,psycho,6,osweb,1.4.11,1,giarlc,262,,0,f,f,f,f,f,f,611,26605,4180,3904,12958,611,2,psycho,875,1440,24,900,24,31,29,1440,1669546225993,1024,2,48000,-16,experiment,1,odd,MacIntel,garlic,74787,50,50,50,73489,43,74021,74689,,50,26661,30858,46625,74837,75452,50,74738,74837,ExPsyLing2022_Class1,14,9235,14,fruit_veg,yes,1024
100,100,671,671,black,no,block1,1,Mozilla,Netscape,"5.0 (Macintosh; Intel Mac OS X 10_15_7) AppleWebKit/605.1.15 (KHTML, like Gecko) Version/16.1 Safari/605.1.15",psycho,psycho,psycho,0,fully-scrambled,uniform,1,1,f,14,0,0,0,14,0,0,14,14,14,0,0,0,0,14,14,0,0,14,14,14,27-10-22,27-10-22,11:49:53,Sun Nov 27 2022 11:49:53 GMT+0100 (Centraleuropæisk normaltid),The main experiment item,yes,0,0,/Users/ethan/Documents/GitHub/OpenSesame/Class1,0,0,0,no,mono,no,18,no,white,no,no,768,923,3.6.1,psycho,psycho,7,osweb,1.4.11,1,ncucoto,262,,0,f,f,f,f,f,f,826,26605,4180,3904,12958,826,2,psycho,875,1440,24,900,24,31,29,1440,1669546225993,1024,2,48000,-16,experiment,1,odd,MacIntel,coconut,76754,50,50,50,75455,43,75988,76656,,50,26661,30858,46625,76804,77635,50,76705,76804,ExPsyLing2022_Class1,15,10061,15,fruit_veg,yes,1024
100,100,670,670,black,no,block1,1,Mozilla,Netscape,"5.0 (Macintosh; Intel Mac OS X 10_15_7) AppleWebKit/605.1.15 (KHTML, like Gecko) Version/16.1 Safari/605.1.15",psycho,psycho,psycho,0,fully-scrambled,uniform,1,1,f,15,0,0,0,15,0,0,15,15,15,0,0,0,0,15,15,0,0,15,15,15,27-10-22,27-10-22,11:49:53,Sun Nov 27 2022 11:49:53 GMT+0100 (Centraleuropæisk normaltid),The main experiment item,yes,0,0,/Users/ethan/Documents/GitHub/OpenSesame/Class1,0,0,0,no,mono,no,18,no,white,no,no,768,923,3.6.1,psycho,psycho,6,osweb,1.4.11,1,enorag,262,,0,f,f,f,f,f,f,651,26605,4180,3904,12958,651,2,psycho,875,1440,24,900,24,31,29,1440,1669546225993,1024,2,48000,-16,experiment,1,odd,MacIntel,orange,78920,50,50,50,77638,43,78173,78838,,50,26661,30858,46625,78971,79635,50,78887,78971,ExPsyLing2022_Class1,16,10712,16,fruit_veg,yes,1024
100,100,664,664,black,no,block1,1,Mozilla,Netscape,"5.0 (Macintosh; Intel Mac OS X 10_15_7) AppleWebKit/605.1.15 (KHTML, like Gecko) Version/16.1 Safari/605.1.15",psycho,psycho,psycho,0,identical,uniform,1,1,a,16,0,0,0,16,0,0,16,16,16,0,0,0,0,16,16,0,0,16,16,16,27-10-22,27-10-22,11:49:53,Sun Nov 27 2022 11:49:53 GMT+0100 (Centraleuropæisk normaltid),The main experiment item,yes,0,0,/Users/ethan/Documents/GitHub/OpenSesame/Class1,0,0,0,no,mono,no,18,no,white,no,no,768,923,3.6.1,psycho,psycho,6,osweb,1.4.11,1,rabbit,262,,0,a,f,f,f,f,a,581,26605,4180,3904,12958,581,2,psycho,875,1440,24,900,24,31,29,1440,1669546225993,1024,2,48000,-16,experiment,1,odd,MacIntel,rabbit,80921,50,50,50,79639,43,80173,80838,,50,26661,30858,46625,80971,81568,50,80887,80971,ExPsyLing2022_Class1,17,11293,17,animal,yes,1024
100,100,660,660,black,no,block1,1,Mozilla,Netscape,"5.0 (Macintosh; Intel Mac OS X 10_15_7) AppleWebKit/605.1.15 (KHTML, like Gecko) Version/16.1 Safari/605.1.15",psycho,psycho,psycho,0,fully-scrambled,uniform,1,1,f,17,0,0,0,17,0,0,17,17,17,0,0,0,0,17,17,0,0,17,17,17,27-10-22,27-10-22,11:49:53,Sun Nov 27 2022 11:49:53 GMT+0100 (Centraleuropæisk normaltid),The main experiment item,yes,0,0,/Users/ethan/Documents/GitHub/OpenSesame/Class1,0,0,0,no,mono,no,18,no,white,no,no,768,923,3.6.1,psycho,psycho,4,osweb,1.4.11,1,opem,262,,0,f,f,f,f,f,f,593,26605,4180,3904,12958,593,2,psycho,875,1440,24,900,24,31,29,1440,1669546225993,1024,2,48000,-16,experiment,1,odd,MacIntel,pome,82854,50,50,50,81572,43,82104,82772,,50,26661,30858,46625,82904,83502,50,82821,82904,ExPsyLing2022_Class1,18,11886,18,fruit_veg,yes,1024
100,100,654,654,black,no,block1,1,Mozilla,Netscape,"5.0 (Macintosh; Intel Mac OS X 10_15_7) AppleWebKit/605.1.15 (KHTML, like Gecko) Version/16.1 Safari/605.1.15",psycho,psycho,psycho,0,semi-scrambled,uniform,1,1,a,18,0,0,0,18,0,0,18,18,18,0,0,0,0,18,18,0,0,18,18,18,27-10-22,27-10-22,11:49:53,Sun Nov 27 2022 11:49:53 GMT+0100 (Centraleuropæisk normaltid),The main experiment item,yes,0,0,/Users/ethan/Documents/GitHub/OpenSesame/Class1,0,0,0,no,mono,no,18,no,white,no,no,768,923,3.6.1,psycho,psycho,5,osweb,1.4.11,1,pdana,262,,0,a,f,f,f,f,a,531,26605,4180,3904,12958,531,2,psycho,875,1440,24,900,24,31,29,1440,1669546225993,1024,2,48000,-16,experiment,1,odd,MacIntel,panda,84788,50,50,50,83505,43,84039,84704,,50,26661,30858,46625,84837,85368,50,84754,84837,ExPsyLing2022_Class1,19,12417,19,animal,yes,1024
100,100,650,650,black,no,block1,1,Mozilla,Netscape,"5.0 (Macintosh; Intel Mac OS X 10_15_7) AppleWebKit/605.1.15 (KHTML, like Gecko) Version/16.1 Safari/605.1.15",psycho,psycho,psycho,0,identical,uniform,1,1,f,19,0,0,0,19,0,0,19,19,19,0,0,0,0,19,19,0,0,19,19,19,27-10-22,27-10-22,11:49:53,Sun Nov 27 2022 11:49:53 GMT+0100 (Centraleuropæisk normaltid),The main experiment item,yes,0,0,/Users/ethan/Documents/GitHub/OpenSesame/Class1,0,0,0,no,mono,no,18,no,white,no,no,768,923,3.6.1,psycho,psycho,5,osweb,1.4.11,1,peach,262,,0,f,f,f,f,f,f,577,26605,4180,3904,12958,577,2,psycho,875,1440,24,900,24,31,29,1440,1669546225993,1024,2,48000,-16,experiment,1,odd,MacIntel,peach,86670,50,50,50,85371,43,85905,86572,,50,26661,30858,46625,86720,87301,50,86621,86720,ExPsyLing2022_Class1,20,12994,20,fruit_veg,yes,1024
100,100,647,647,black,no,block1,1,Mozilla,Netscape,"5.0 (Macintosh; Intel Mac OS X 10_15_7) AppleWebKit/605.1.15 (KHTML, like Gecko) Version/16.1 Safari/605.1.15",psycho,psycho,psycho,0,semi-scrambled,uniform,1,1,a,20,0,0,0,20,0,0,20,20,20,0,0,0,0,20,20,0,0,20,20,20,27-10-22,27-10-22,11:49:53,Sun Nov 27 2022 11:49:53 GMT+0100 (Centraleuropæisk normaltid),The main experiment item,yes,0,0,/Users/ethan/Documents/GitHub/OpenSesame/Class1,0,0,0,no,mono,no,18,no,white,no,no,768,923,3.6.1,psycho,psycho,6,osweb,1.4.11,1,tlurte,262,,0,a,f,f,f,f,a,602,26605,4180,3904,12958,602,2,psycho,875,1440,24,900,24,31,29,1440,1669546225993,1024,2,48000,-16,experiment,1,odd,MacIntel,turtle,88587,50,50,50,87304,43,87840,88505,,50,26661,30858,46625,88637,89251,50,88554,88637,ExPsyLing2022_Class1,21,13596,21,animal,yes,1024
100,100,649,649,black,no,block1,1,Mozilla,Netscape,"5.0 (Macintosh; Intel Mac OS X 10_15_7) AppleWebKit/605.1.15 (KHTML, like Gecko) Version/16.1 Safari/605.1.15",psycho,psycho,psycho,0,semi-scrambled,uniform,1,1,a,21,0,0,0,21,0,0,21,21,21,0,0,0,0,21,21,0,0,21,21,21,27-10-22,27-10-22,11:49:53,Sun Nov 27 2022 11:49:53 GMT+0100 (Centraleuropæisk normaltid),The main experiment item,yes,0,0,/Users/ethan/Documents/GitHub/OpenSesame/Class1,0,0,0,no,mono,no,18,no,white,no,no,768,923,3.6.1,psycho,psycho,7,osweb,1.4.11,1,cikechn,262,,0,a,f,f,f,f,a,680,26605,4180,3904,12958,680,2,psycho,875,1440,24,900,24,31,29,1440,1669546225993,1024,2,48000,-16,experiment,1,odd,MacIntel,chicken,90537,50,50,50,89255,43,89790,90455,,50,26661,30858,46625,90587,91268,50,90504,90587,ExPsyLing2022_Class1,22,14276,22,animal,yes,1024
100,100,651,651,black,no,block1,1,Mozilla,Netscape,"5.0 (Macintosh; Intel Mac OS X 10_15_7) AppleWebKit/605.1.15 (KHTML, like Gecko) Version/16.1 Safari/605.1.15",psycho,psycho,psycho,0,semi-scrambled,uniform,1,1,a,22,0,0,0,22,0,0,22,22,22,0,0,0,0,22,22,0,0,22,22,22,27-10-22,27-10-22,11:49:53,Sun Nov 27 2022 11:49:53 GMT+0100 (Centraleuropæisk normaltid),The main experiment item,yes,0,0,/Users/ethan/Documents/GitHub/OpenSesame/Class1,0,0,0,no,mono,no,18,no,white,no,no,768,923,3.6.1,psycho,psycho,6,osweb,1.4.11,1,wabmot,262,,0,a,f,f,f,f,a,696,26605,4180,3904,12958,696,2,psycho,875,1440,24,900,24,31,29,1440,1669546225993,1024,2,48000,-16,experiment,1,odd,MacIntel,wombat,92570,50,50,50,91271,43,91805,92471,,50,26661,30858,46625,92620,93318,50,92521,92620,ExPsyLing2022_Class1,23,14972,23,animal,yes,1024
96,96,658,658,black,no,block1,1,Mozilla,Netscape,"5.0 (Macintosh; Intel Mac OS X 10_15_7) AppleWebKit/605.1.15 (KHTML, like Gecko) Version/16.1 Safari/605.1.15",psycho,psycho,psycho,0,identical,uniform,0,0,f,23,0,0,0,23,0,0,23,23,23,0,0,0,0,23,23,0,0,23,23,23,27-10-22,27-10-22,11:49:53,Sun Nov 27 2022 11:49:53 GMT+0100 (Centraleuropæisk normaltid),The main experiment item,yes,0,0,/Users/ethan/Documents/GitHub/OpenSesame/Class1,0,0,0,no,mono,no,18,no,white,no,no,768,923,3.6.1,psycho,psycho,4,osweb,1.4.11,1,lime,262,,0,a,f,f,f,f,a,826,26605,4180,3904,12958,826,2,psycho,875,1440,24,900,24,31,29,1440,1669546225993,1024,2,48000,-16,experiment,1,odd,MacIntel,lime,94620,50,50,50,93321,43,93857,94522,,50,26661,30858,46625,94670,95501,50,94571,94670,ExPsyLing2022_Class1,23,15798,24,fruit_veg,yes,1024
96,96,657,657,black,no,block1,1,Mozilla,Netscape,"5.0 (Macintosh; Intel Mac OS X 10_15_7) AppleWebKit/605.1.15 (KHTML, like Gecko) Version/16.1 Safari/605.1.15",psycho,psycho,psycho,0,semi-scrambled,uniform,1,1,a,24,0,0,0,24,0,0,24,24,24,0,0,0,0,24,24,0,0,24,24,24,27-10-22,27-10-22,11:49:53,Sun Nov 27 2022 11:49:53 GMT+0100 (Centraleuropæisk normaltid),The main experiment item,yes,0,0,/Users/ethan/Documents/GitHub/OpenSesame/Class1,0,0,0,no,mono,no,18,no,white,no,no,768,923,3.6.1,psycho,psycho,5,osweb,1.4.11,1,hrsoe,262,,0,a,f,f,f,f,a,628,26605,4180,3904,12958,628,2,psycho,875,1440,24,900,24,31,29,1440,1669546225993,1024,2,48000,-16,experiment,1,odd,MacIntel,horse,96787,50,50,50,93321,43,96037,96704,95504,50,26661,30858,46625,96837,97468,50,96754,96837,ExPsyLing2022_Class1,24,16426,25,animal,yes,1024
96,96,660,660,black,no,block1,1,Mozilla,Netscape,"5.0 (Macintosh; Intel Mac OS X 10_15_7) AppleWebKit/605.1.15 (KHTML, like Gecko) Version/16.1 Safari/605.1.15",psycho,psycho,psycho,0,fully-scrambled,uniform,1,1,a,25,0,0,0,25,0,0,25,25,25,0,0,0,0,25,25,0,0,25,25,25,27-10-22,27-10-22,11:49:53,Sun Nov 27 2022 11:49:53 GMT+0100 (Centraleuropæisk normaltid),The main experiment item,yes,0,0,/Users/ethan/Documents/GitHub/OpenSesame/Class1,0,0,0,no,mono,no,18,no,white,no,no,768,923,3.6.1,psycho,psycho,5,osweb,1.4.11,1,noibs,262,,0,a,f,f,f,f,a,740,26605,4180,3904,12958,740,2,psycho,875,1440,24,900,24,31,29,1440,1669546225993,1024,2,48000,-16,experiment,1,odd,MacIntel,bison,98770,50,50,50,97471,43,98005,98671,95504,50,26661,30858,46625,98820,99568,50,98721,98820,ExPsyLing2022_Class1,25,17166,26,animal,yes,1024
96,96,662,662,black,no,block1,1,Mozilla,Netscape,"5.0 (Macintosh; Intel Mac OS X 10_15_7) AppleWebKit/605.1.15 (KHTML, like Gecko) Version/16.1 Safari/605.1.15",psycho,psycho,psycho,0,fully-scrambled,uniform,1,1,a,26,0,0,0,26,0,0,26,26,26,0,0,0,0,26,26,0,0,26,26,26,27-10-22,27-10-22,11:49:53,Sun Nov 27 2022 11:49:53 GMT+0100 (Centraleuropæisk normaltid),The main experiment item,yes,0,0,/Users/ethan/Documents/GitHub/OpenSesame/Class1,0,0,0,no,mono,no,18,no,white,no,no,768,923,3.6.1,psycho,psycho,4,osweb,1.4.11,1,aotg,262,,0,a,f,f,f,f,a,718,26605,4180,3904,12958,718,2,psycho,875,1440,24,900,24,31,29,1440,1669546225993,1024,2,48000,-16,experiment,1,odd,MacIntel,goat,100853,50,50,50,99571,43,100105,100771,95504,50,26661,30858,46625,100903,101634,50,100819,100903,ExPsyLing2022_Class1,26,17884,27,animal,yes,1024
96,96,664,664,black,no,block1,1,Mozilla,Netscape,"5.0 (Macintosh; Intel Mac OS X 10_15_7) AppleWebKit/605.1.15 (KHTML, like Gecko) Version/16.1 Safari/605.1.15",psycho,psycho,psycho,0,fully-scrambled,uniform,1,1,f,27,0,0,0,27,0,0,27,27,27,0,0,0,0,27,27,0,0,27,27,27,27-10-22,27-10-22,11:49:53,Sun Nov 27 2022 11:49:53 GMT+0100 (Centraleuropæisk normaltid),The main experiment item,yes,0,0,/Users/ethan/Documents/GitHub/OpenSesame/Class1,0,0,0,no,mono,no,18,no,white,no,no,768,923,3.6.1,psycho,psycho,8,osweb,1.4.11,1,mcurcube,262,,0,f,f,f,f,f,f,694,26605,4180,3904,12958,694,2,psycho,875,1440,24,900,24,31,29,1440,1669546225993,1024,2,48000,-16,experiment,1,odd,MacIntel,cucumber,102920,50,50,50,101638,43,102171,102838,95504,50,26661,30858,46625,102970,103668,50,102887,102970,ExPsyLing2022_Class1,27,18578,28,fruit_veg,yes,1024
97,97,661,661,black,no,block1,1,Mozilla,Netscape,"5.0 (Macintosh; Intel Mac OS X 10_15_7) AppleWebKit/605.1.15 (KHTML, like Gecko) Version/16.1 Safari/605.1.15",psycho,psycho,psycho,0,identical,uniform,1,1,a,28,0,0,0,28,0,0,28,28,28,0,0,0,0,28,28,0,0,28,28,28,27-10-22,27-10-22,11:49:53,Sun Nov 27 2022 11:49:53 GMT+0100 (Centraleuropæisk normaltid),The main experiment item,yes,0,0,/Users/ethan/Documents/GitHub/OpenSesame/Class1,0,0,0,no,mono,no,18,no,white,no,no,768,923,3.6.1,psycho,psycho,4,osweb,1.4.11,1,bull,262,,0,a,f,f,f,f,a,592,26605,4180,3904,12958,592,2,psycho,875,1440,24,900,24,31,29,1440,1669546225993,1024,2,48000,-16,experiment,1,odd,MacIntel,bull,104953,50,50,50,103671,43,104203,104871,95504,50,26661,30858,46625,105003,105601,50,104920,105003,ExPsyLing2022_Class1,28,19170,29,animal,yes,1024
97,97,675,675,black,no,block1,1,Mozilla,Netscape,"5.0 (Macintosh; Intel Mac OS X 10_15_7) AppleWebKit/605.1.15 (KHTML, like Gecko) Version/16.1 Safari/605.1.15",psycho,psycho,psycho,0,semi-scrambled,uniform,1,1,f,29,0,0,0,29,0,0,29,29,29,0,0,0,0,29,29,0,0,29,29,29,27-10-22,27-10-22,11:49:53,Sun Nov 27 2022 11:49:53 GMT+0100 (Centraleuropæisk normaltid),The main experiment item,yes,0,0,/Users/ethan/Documents/GitHub/OpenSesame/Class1,0,0,0,no,mono,no,18,no,white,no,no,768,923,3.6.1,psycho,psycho,8,osweb,1.4.11,1,btooeert,262,,0,f,f,f,f,f,f,1093,26605,4180,3904,12958,1093,2,psycho,875,1440,24,900,24,31,29,1440,1669546225993,1024,2,48000,-16,experiment,1,odd,MacIntel,beetroot,106903,50,50,50,105603,43,106137,106804,95504,50,26661,30858,46625,106953,108051,50,106854,106953,ExPsyLing2022_Class1,29,20263,30,fruit_veg,yes,1024
97,97,678,678,black,no,block1,1,Mozilla,Netscape,"5.0 (Macintosh; Intel Mac OS X 10_15_7) AppleWebKit/605.1.15 (KHTML, like Gecko) Version/16.1 Safari/605.1.15",psycho,psycho,psycho,0,identical,uniform,1,1,f,30,0,0,0,30,0,0,30,30,30,0,0,0,0,30,30,0,0,30,30,30,27-10-22,27-10-22,11:49:53,Sun Nov 27 2022 11:49:53 GMT+0100 (Centraleuropæisk normaltid),The main experiment item,yes,0,0,/Users/ethan/Documents/GitHub/OpenSesame/Class1,0,0,0,no,mono,no,18,no,white,no,no,768,923,3.6.1,psycho,psycho,7,osweb,1.4.11,1,spinach,262,,0,f,f,f,f,f,f,762,26605,4180,3904,12958,762,2,psycho,875,1440,24,900,24,31,29,1440,1669546225993,1024,2,48000,-16,experiment,1,odd,MacIntel,spinach,109335,50,50,50,108055,43,108586,109254,95504,50,26661,30858,46625,109370,110134,50,109303,109370,ExPsyLing2022_Class1,30,21025,31,fruit_veg,yes,1024
97,97,685,685,black,no,block1,1,Mozilla,Netscape,"5.0 (Macintosh; Intel Mac OS X 10_15_7) AppleWebKit/605.1.15 (KHTML, like Gecko) Version/16.1 Safari/605.1.15",psycho,psycho,psycho,0,identical,uniform,1,1,f,31,0,0,0,31,0,0,31,31,31,0,0,0,0,31,31,0,0,31,31,31,27-10-22,27-10-22,11:49:53,Sun Nov 27 2022 11:49:53 GMT+0100 (Centraleuropæisk normaltid),The main experiment item,yes,0,0,/Users/ethan/Documents/GitHub/OpenSesame/Class1,0,0,0,no,mono,no,18,no,white,no,no,768,923,3.6.1,psycho,psycho,8,osweb,1.4.11,1,eggplant,262,,0,f,f,f,f,f,f,886,26605,4180,3904,12958,886,2,psycho,875,1440,24,900,24,31,29,1440,1669546225993,1024,2,48000,-16,experiment,1,odd,MacIntel,eggplant,111436,50,50,50,110137,43,110670,111337,95504,50,26661,30858,46625,111486,112384,50,111387,111486,ExPsyLing2022_Class1,31,21911,32,fruit_veg,yes,1024
97,97,682,682,black,no,block1,1,Mozilla,Netscape,"5.0 (Macintosh; Intel Mac OS X 10_15_7) AppleWebKit/605.1.15 (KHTML, like Gecko) Version/16.1 Safari/605.1.15",psycho,psycho,psycho,0,identical,uniform,1,1,a,32,0,0,0,32,0,0,32,32,32,0,0,0,0,32,32,0,0,32,32,32,27-10-22,27-10-22,11:49:53,Sun Nov 27 2022 11:49:53 GMT+0100 (Centraleuropæisk normaltid),The main experiment item,yes,0,0,/Users/ethan/Documents/GitHub/OpenSesame/Class1,0,0,0,no,mono,no,18,no,white,no,no,768,923,3.6.1,psycho,psycho,5,osweb,1.4.11,1,tiger,262,,0,a,f,f,f,f,a,597,26605,4180,3904,12958,597,2,psycho,875,1440,24,900,24,31,29,1440,1669546225993,1024,2,48000,-16,experiment,1,odd,MacIntel,tiger,113669,50,50,50,112387,43,112918,113587,95504,50,26661,30858,46625,113720,114317,50,113636,113719,ExPsyLing2022_Class1,32,22508,33,animal,yes,1024
97,97,683,683,black,no,block1,1,Mozilla,Netscape,"5.0 (Macintosh; Intel Mac OS X 10_15_7) AppleWebKit/605.1.15 (KHTML, like Gecko) Version/16.1 Safari/605.1.15",psycho,psycho,psycho,0,fully-scrambled,uniform,1,1,f,33,0,0,0,33,0,0,33,33,33,0,0,0,0,33,33,0,0,33,33,33,27-10-22,27-10-22,11:49:53,Sun Nov 27 2022 11:49:53 GMT+0100 (Centraleuropæisk normaltid),The main experiment item,yes,0,0,/Users/ethan/Documents/GitHub/OpenSesame/Class1,0,0,0,no,mono,no,18,no,white,no,no,768,923,3.6.1,psycho,psycho,8,osweb,1.4.11,1,nchizuic,262,,0,f,f,f,f,f,f,709,26605,4180,3904,12958,709,2,psycho,875,1440,24,900,24,31,29,1440,1669546225993,1024,2,48000,-16,experiment,1,odd,MacIntel,zucchini,115603,50,50,50,114321,43,114853,115521,95504,50,26661,30858,46625,115653,116367,50,115570,115653,ExPsyLing2022_Class1,33,23217,34,fruit_veg,yes,1024
97,97,684,684,black,no,block1,1,Mozilla,Netscape,"5.0 (Macintosh; Intel Mac OS X 10_15_7) AppleWebKit/605.1.15 (KHTML, like Gecko) Version/16.1 Safari/605.1.15",psycho,psycho,psycho,0,semi-scrambled,uniform,1,1,f,34,0,0,0,34,0,0,34,34,34,0,0,0,0,34,34,0,0,34,34,34,27-10-22,27-10-22,11:49:53,Sun Nov 27 2022 11:49:53 GMT+0100 (Centraleuropæisk normaltid),The main experiment item,yes,0,0,/Users/ethan/Documents/GitHub/OpenSesame/Class1,0,0,0,no,mono,no,18,no,white,no,no,768,923,3.6.1,psycho,psycho,8,osweb,1.4.11,1,slcaolin,262,,0,f,f,f,f,f,f,714,26605,4180,3904,12958,714,2,psycho,875,1440,24,900,24,31,29,1440,1669546225993,1024,2,48000,-16,experiment,1,odd,MacIntel,scallion,117653,50,50,50,116370,43,116903,117571,95504,50,26661,30858,46625,117703,118434,50,117620,117703,ExPsyLing2022_Class1,34,23931,35,fruit_veg,yes,1024
97,97,683,683,black,no,block1,1,Mozilla,Netscape,"5.0 (Macintosh; Intel Mac OS X 10_15_7) AppleWebKit/605.1.15 (KHTML, like Gecko) Version/16.1 Safari/605.1.15",psycho,psycho,psycho,0,fully-scrambled,uniform,1,1,f,35,0,0,0,35,0,0,35,35,35,0,0,0,0,35,35,0,0,35,35,35,27-10-22,27-10-22,11:49:53,Sun Nov 27 2022 11:49:53 GMT+0100 (Centraleuropæisk normaltid),The main experiment item,yes,0,0,/Users/ethan/Documents/GitHub/OpenSesame/Class1,0,0,0,no,mono,no,18,no,white,no,no,768,923,3.6.1,psycho,psycho,7,osweb,1.4.11,1,kpumpni,262,,0,f,f,f,f,f,f,661,26605,4180,3904,12958,661,2,psycho,875,1440,24,900,24,31,29,1440,1669546225993,1024,2,48000,-16,experiment,1,odd,MacIntel,pumpkin,119719,50,50,50,118437,43,118969,119637,95504,50,26661,30858,46625,119769,120433,50,119686,119769,ExPsyLing2022_Class1,35,24592,36,fruit_veg,yes,1024
97,97,690,690,black,no,block1,1,Mozilla,Netscape,"5.0 (Macintosh; Intel Mac OS X 10_15_7) AppleWebKit/605.1.15 (KHTML, like Gecko) Version/16.1 Safari/605.1.15",psycho,psycho,psycho,0,fully-scrambled,uniform,1,1,a,36,0,0,0,36,0,0,36,36,36,0,0,0,0,36,36,0,0,36,36,36,27-10-22,27-10-22,11:49:53,Sun Nov 27 2022 11:49:53 GMT+0100 (Centraleuropæisk normaltid),The main experiment item,yes,0,0,/Users/ethan/Documents/GitHub/OpenSesame/Class1,0,0,0,no,mono,no,18,no,white,no,no,768,923,3.6.1,psycho,psycho,8,osweb,1.4.11,1,lypustap,262,,0,a,f,f,f,f,a,944,26605,4180,3904,12958,944,2,psycho,875,1440,24,900,24,31,29,1440,1669546225993,1024,2,48000,-16,experiment,1,odd,MacIntel,platypus,121736,50,50,50,120436,43,120969,121637,95504,50,26661,30858,46625,121786,122733,50,121687,121786,ExPsyLing2022_Class1,36,25536,37,animal,yes,1024
97,97,688,688,black,no,block1,1,Mozilla,Netscape,"5.0 (Macintosh; Intel Mac OS X 10_15_7) AppleWebKit/605.1.15 (KHTML, like Gecko) Version/16.1 Safari/605.1.15",psycho,psycho,psycho,0,identical,uniform,1,1,a,37,0,0,0,37,0,0,37,37,37,0,0,0,0,37,37,0,0,37,37,37,27-10-22,27-10-22,11:49:53,Sun Nov 27 2022 11:49:53 GMT+0100 (Centraleuropæisk normaltid),The main experiment item,yes,0,0,/Users/ethan/Documents/GitHub/OpenSesame/Class1,0,0,0,no,mono,no,18,no,white,no,no,768,923,3.6.1,psycho,psycho,6,osweb,1.4.11,1,cougar,262,,0,a,f,f,f,f,a,620,26605,4180,3904,12958,620,2,psycho,875,1440,24,900,24,31,29,1440,1669546225993,1024,2,48000,-16,experiment,1,odd,MacIntel,cougar,124036,50,50,50,122736,43,123267,123937,95504,50,26661,30858,46625,124086,124717,50,123987,124086,ExPsyLing2022_Class1,37,26156,38,animal,yes,1024
97,97,684,684,black,no,block1,1,Mozilla,Netscape,"5.0 (Macintosh; Intel Mac OS X 10_15_7) AppleWebKit/605.1.15 (KHTML, like Gecko) Version/16.1 Safari/605.1.15",psycho,psycho,psycho,0,semi-scrambled,uniform,1,1,f,38,0,0,0,38,0,0,38,38,38,0,0,0,0,38,38,0,0,38,38,38,27-10-22,27-10-22,11:49:53,Sun Nov 27 2022 11:49:53 GMT+0100 (Centraleuropæisk normaltid),The main experiment item,yes,0,0,/Users/ethan/Documents/GitHub/OpenSesame/Class1,0,0,0,no,mono,no,18,no,white,no,no,768,923,3.6.1,psycho,psycho,5,osweb,1.4.11,1,oivle,262,,0,f,f,f,f,f,f,520,26605,4180,3904,12958,520,2,psycho,875,1440,24,900,24,31,29,1440,1669546225993,1024,2,48000,-16,experiment,1,odd,MacIntel,olive,126003,50,50,50,124720,43,125253,125920,95504,50,26661,30858,46625,126052,126584,50,125969,126052,ExPsyLing2022_Class1,38,26676,39,fruit_veg,yes,1024
98,98,686,686,black,no,block1,1,Mozilla,Netscape,"5.0 (Macintosh; Intel Mac OS X 10_15_7) AppleWebKit/605.1.15 (KHTML, like Gecko) Version/16.1 Safari/605.1.15",psycho,psycho,psycho,0,semi-scrambled,uniform,1,1,f,39,0,0,0,39,0,0,39,39,39,0,0,0,0,39,39,0,0,39,39,39,27-10-22,27-10-22,11:49:53,Sun Nov 27 2022 11:49:53 GMT+0100 (Centraleuropæisk normaltid),The main experiment item,yes,0,0,/Users/ethan/Documents/GitHub/OpenSesame/Class1,0,0,0,no,mono,no,18,no,white,no,no,768,923,3.6.1,psycho,psycho,7,osweb,1.4.11,1,pianrsp,262,,0,f,f,f,f,f,f,748,26605,4180,3904,12958,748,2,psycho,875,1440,24,900,24,31,29,1440,1669546225993,1024,2,48000,-16,experiment,1,odd,MacIntel,parsnip,127869,50,50,50,126587,43,127119,127787,95504,50,26661,30858,46625,127919,128683,50,127836,127919,ExPsyLing2022_Class1,39,27424,40,fruit_veg,yes,1024
98,98,685,685,black,no,block1,1,Mozilla,Netscape,"5.0 (Macintosh; Intel Mac OS X 10_15_7) AppleWebKit/605.1.15 (KHTML, like Gecko) Version/16.1 Safari/605.1.15",psycho,psycho,psycho,0,fully-scrambled,uniform,1,1,f,40,0,0,0,40,0,0,40,40,40,0,0,0,0,40,40,0,0,40,40,40,27-10-22,27-10-22,11:49:53,Sun Nov 27 2022 11:49:53 GMT+0100 (Centraleuropæisk normaltid),The main experiment item,yes,0,0,/Users/ethan/Documents/GitHub/OpenSesame/Class1,0,0,0,no,mono,no,18,no,white,no,no,768,923,3.6.1,psycho,psycho,4,osweb,1.4.11,1,mpul,262,,0,f,f,f,f,f,f,652,26605,4180,3904,12958,652,2,psycho,875,1440,24,900,24,31,29,1440,1669546225993,1024,2,48000,-16,experiment,1,odd,MacIntel,plum,129969,50,50,50,128686,43,129219,129887,95504,50,26661,30858,46625,130019,130684,50,129936,130019,ExPsyLing2022_Class1,40,28076,41,fruit_veg,yes,1024
98,98,684,684,black,no,block1,1,Mozilla,Netscape,"5.0 (Macintosh; Intel Mac OS X 10_15_7) AppleWebKit/605.1.15 (KHTML, like Gecko) Version/16.1 Safari/605.1.15",psycho,psycho,psycho,0,identical,uniform,1,1,f,41,0,0,0,41,0,0,41,41,41,0,0,0,0,41,41,0,0,41,41,41,27-10-22,27-10-22,11:49:53,Sun Nov 27 2022 11:49:53 GMT+0100 (Centraleuropæisk normaltid),The main experiment item,yes,0,0,/Users/ethan/Documents/GitHub/OpenSesame/Class1,0,0,0,no,mono,no,18,no,white,no,no,768,923,3.6.1,psycho,psycho,8,osweb,1.4.11,1,mushroom,262,,0,f,f,f,f,f,f,664,26605,4180,3904,12958,664,2,psycho,875,1440,24,900,24,31,29,1440,1669546225993,1024,2,48000,-16,experiment,1,odd,MacIntel,mushroom,131986,50,50,50,130687,43,131228,131892,95504,50,26661,30858,46625,132036,132701,50,131937,132036,ExPsyLing2022_Class1,41,28740,42,fruit_veg,yes,1024
