acc,accuracy,average_response_time,avg_rt,background,bidi,block,block_picker,browser_codename,browser_name,browser_version,canvas_backend,clock_backend,color_backend,compensation,condition,coordinates,correct,correct_keyboard_response,correct_response,count_backward_mask,count_block_1,count_block_2,count_block_3,count_break,count_counter_balance,count_experiment,count_fix,count_forward_mask,count_instructions,count_keyboard_response,count_logger,count_osweb,count_prime,count_start,count_target,count_trials,date_startdate,date_startdateUTC,date_starttime,datetime,description,disable_garbage_collection,experiment_debug,experiment_parameters,experiment_path,experiment_pilot,experiment_taskname,experiment_taskversion,font_bold,font_family,font_italic,font_size,font_underline,foreground,form_clicks,fullscreen,height,jatosStudyResultId,jatosVersion,keyboard_backend,mouse_backend,num_letters,opensesame_codename,opensesame_version,penwidth,prime,queryParams_batchId,queryParams_generalMultiple,repeat_cycle,response,response_break,response_instructions,response_keyboard_response,response_start,response_time,response_time_break,response_time_instructions,response_time_keyboard_response,response_time_start,round_decimals,sampler_backend,screen_availableHeight,screen_availableWidth,screen_colorDepth,screen_height,screen_pixelDepth,screen_screenX,screen_screenY,screen_width,sessionid,sound_buf_size,sound_channels,sound_freq,sound_sample_size,start,subject_nr,subject_parity,system_os,target,time_backward_mask,time_block_1,time_block_2,time_block_3,time_break,time_counter_balance,time_fix,time_forward_mask,time_instructions,time_keyboard_response,time_logger,time_prime,time_start,time_target,title,total_correct,total_response_time,total_responses,type,uniform_coordinates,width
100,100,1521,1521,black,no,block2,2,Mozilla,Netscape,"5.0 (Macintosh; Intel Mac OS X 10_15_7) AppleWebKit/605.1.15 (KHTML, like Gecko) Version/16.1 Safari/605.1.15",psycho,psycho,psycho,0,fully-scrambled,uniform,1,1,f,0,0,0,0,0,0,0,0,0,0,0,0,0,0,0,0,0,24-10-22,24-10-22,08:24:47,Thu Nov 24 2022 08:24:47 GMT+0100 (Centraleuropæisk normaltid),The main experiment item,yes,0,0,/Users/ethan/Documents/GitHub/OpenSesame/Class1,0,0,0,no,mono,no,18,no,white,no,no,768,887,3.6.1,psycho,psycho,7,osweb,1.4.11,1,iotrapc,253,,0,f,,a,f,a,1521,,8546,1521,2737,2,psycho,817,1440,24,900,24,0,25,1440,1669274760811,1024,2,48000,-16,experiment,1,odd,MacIntel,apricot,12475,30,30,30,,24,11371,12377,30,12525,14056,12426,8593,12525,ExPsyLing2022_Class1,1,1521,1,fruit_veg,yes,1024
100,100,1115,1115,black,no,block2,2,Mozilla,Netscape,"5.0 (Macintosh; Intel Mac OS X 10_15_7) AppleWebKit/605.1.15 (KHTML, like Gecko) Version/16.1 Safari/605.1.15",psycho,psycho,psycho,0,semi-scrambled,uniform,1,1,a,1,0,0,0,1,0,0,1,1,0,1,1,0,1,0,1,1,24-10-22,24-10-22,08:24:47,Thu Nov 24 2022 08:24:47 GMT+0100 (Centraleuropæisk normaltid),The main experiment item,yes,0,0,/Users/ethan/Documents/GitHub/OpenSesame/Class1,0,0,0,no,mono,no,18,no,white,no,no,768,887,3.6.1,psycho,psycho,8,osweb,1.4.11,1,fgliamno,253,,0,a,,a,a,a,709,,8546,709,2737,2,psycho,817,1440,24,900,24,0,25,1440,1669274760811,1024,2,48000,-16,experiment,1,odd,MacIntel,flamingo,15192,30,30,30,,24,14078,15093,30,15242,15955,15142,8593,15242,ExPsyLing2022_Class1,2,2230,2,animal,yes,1024
100,100,1042,1042,black,no,block2,2,Mozilla,Netscape,"5.0 (Macintosh; Intel Mac OS X 10_15_7) AppleWebKit/605.1.15 (KHTML, like Gecko) Version/16.1 Safari/605.1.15",psycho,psycho,psycho,0,fully-scrambled,uniform,1,1,a,2,0,0,0,2,0,0,2,2,0,2,2,0,2,0,2,2,24-10-22,24-10-22,08:24:47,Thu Nov 24 2022 08:24:47 GMT+0100 (Centraleuropæisk normaltid),The main experiment item,yes,0,0,/Users/ethan/Documents/GitHub/OpenSesame/Class1,0,0,0,no,mono,no,18,no,white,no,no,768,887,3.6.1,psycho,psycho,6,osweb,1.4.11,1,briatb,253,,0,a,,a,a,a,896,,8546,896,2737,2,psycho,817,1440,24,900,24,0,25,1440,1669274760811,1024,2,48000,-16,experiment,1,odd,MacIntel,rabbit,17092,30,30,30,,24,15978,16992,30,17142,18039,17043,8593,17142,ExPsyLing2022_Class1,3,3126,3,animal,yes,1024
75,75,909,909,black,no,block2,2,Mozilla,Netscape,"5.0 (Macintosh; Intel Mac OS X 10_15_7) AppleWebKit/605.1.15 (KHTML, like Gecko) Version/16.1 Safari/605.1.15",psycho,psycho,psycho,0,identical,uniform,0,0,a,3,0,0,0,3,0,0,3,3,0,3,3,0,3,0,3,3,24-10-22,24-10-22,08:24:47,Thu Nov 24 2022 08:24:47 GMT+0100 (Centraleuropæisk normaltid),The main experiment item,yes,0,0,/Users/ethan/Documents/GitHub/OpenSesame/Class1,0,0,0,no,mono,no,18,no,white,no,no,768,887,3.6.1,psycho,psycho,4,osweb,1.4.11,1,lamb,253,,0,f,,a,f,a,509,,8546,509,2737,2,psycho,817,1440,24,900,24,0,25,1440,1669274760811,1024,2,48000,-16,experiment,1,odd,MacIntel,lamb,19175,30,30,30,,24,18062,19077,30,19225,19739,19125,8593,19225,ExPsyLing2022_Class1,3,3635,4,animal,yes,1024
80,80,967,967,black,no,block2,2,Mozilla,Netscape,"5.0 (Macintosh; Intel Mac OS X 10_15_7) AppleWebKit/605.1.15 (KHTML, like Gecko) Version/16.1 Safari/605.1.15",psycho,psycho,psycho,0,semi-scrambled,uniform,1,1,a,4,0,0,0,4,0,0,4,4,0,4,4,0,4,0,4,4,24-10-22,24-10-22,08:24:47,Thu Nov 24 2022 08:24:47 GMT+0100 (Centraleuropæisk normaltid),The main experiment item,yes,0,0,/Users/ethan/Documents/GitHub/OpenSesame/Class1,0,0,0,no,mono,no,18,no,white,no,no,768,887,3.6.1,psycho,psycho,5,osweb,1.4.11,1,kaloa,253,,0,a,,a,a,a,1200,,8546,1200,2737,2,psycho,817,1440,24,900,24,0,25,1440,1669274760811,1024,2,48000,-16,experiment,1,odd,MacIntel,koala,20875,30,30,30,,24,19763,20775,30,20925,22139,20827,8593,20925,ExPsyLing2022_Class1,4,4835,5,animal,yes,1024
83,83,932,932,black,no,block2,2,Mozilla,Netscape,"5.0 (Macintosh; Intel Mac OS X 10_15_7) AppleWebKit/605.1.15 (KHTML, like Gecko) Version/16.1 Safari/605.1.15",psycho,psycho,psycho,0,fully-scrambled,uniform,1,1,a,5,0,0,0,5,0,0,5,5,0,5,5,0,5,0,5,5,24-10-22,24-10-22,08:24:47,Thu Nov 24 2022 08:24:47 GMT+0100 (Centraleuropæisk normaltid),The main experiment item,yes,0,0,/Users/ethan/Documents/GitHub/OpenSesame/Class1,0,0,0,no,mono,no,18,no,white,no,no,768,887,3.6.1,psycho,psycho,7,osweb,1.4.11,1,tupocsu,253,,0,a,,a,a,a,754,,8546,754,2737,2,psycho,817,1440,24,900,24,0,25,1440,1669274760811,1024,2,48000,-16,experiment,1,odd,MacIntel,octupus,23276,30,30,30,,24,22162,23176,30,23324,24089,23226,8593,23324,ExPsyLing2022_Class1,5,5589,6,animal,yes,1024
86,86,873,873,black,no,block2,2,Mozilla,Netscape,"5.0 (Macintosh; Intel Mac OS X 10_15_7) AppleWebKit/605.1.15 (KHTML, like Gecko) Version/16.1 Safari/605.1.15",psycho,psycho,psycho,0,semi-scrambled,uniform,1,1,a,6,0,0,0,6,0,0,6,6,0,6,6,0,6,0,6,6,24-10-22,24-10-22,08:24:47,Thu Nov 24 2022 08:24:47 GMT+0100 (Centraleuropæisk normaltid),The main experiment item,yes,0,0,/Users/ethan/Documents/GitHub/OpenSesame/Class1,0,0,0,no,mono,no,18,no,white,no,no,768,887,3.6.1,psycho,psycho,4,osweb,1.4.11,1,gaot,253,,0,a,,a,a,a,520,,8546,520,2737,2,psycho,817,1440,24,900,24,0,25,1440,1669274760811,1024,2,48000,-16,experiment,1,odd,MacIntel,goat,25226,30,30,30,,24,24109,25126,30,25275,25806,25176,8593,25275,ExPsyLing2022_Class1,6,6109,7,animal,yes,1024
88,88,873,873,black,no,block2,2,Mozilla,Netscape,"5.0 (Macintosh; Intel Mac OS X 10_15_7) AppleWebKit/605.1.15 (KHTML, like Gecko) Version/16.1 Safari/605.1.15",psycho,psycho,psycho,0,fully-scrambled,uniform,1,1,f,7,0,0,0,7,0,0,7,7,0,7,7,0,7,0,7,7,24-10-22,24-10-22,08:24:47,Thu Nov 24 2022 08:24:47 GMT+0100 (Centraleuropæisk normaltid),The main experiment item,yes,0,0,/Users/ethan/Documents/GitHub/OpenSesame/Class1,0,0,0,no,mono,no,18,no,white,no,no,768,887,3.6.1,psycho,psycho,8,osweb,1.4.11,1,srommhuo,253,,0,f,,a,f,a,877,,8546,877,2737,2,psycho,817,1440,24,900,24,0,25,1440,1669274760811,1024,2,48000,-16,experiment,1,odd,MacIntel,mushroom,26942,30,30,30,,24,25827,26843,30,26992,27872,26893,8593,26992,ExPsyLing2022_Class1,7,6986,8,fruit_veg,yes,1024
89,89,880,880,black,no,block2,2,Mozilla,Netscape,"5.0 (Macintosh; Intel Mac OS X 10_15_7) AppleWebKit/605.1.15 (KHTML, like Gecko) Version/16.1 Safari/605.1.15",psycho,psycho,psycho,0,semi-scrambled,uniform,1,1,f,8,0,0,0,8,0,0,8,8,0,8,8,0,8,0,8,8,24-10-22,24-10-22,08:24:47,Thu Nov 24 2022 08:24:47 GMT+0100 (Centraleuropæisk normaltid),The main experiment item,yes,0,0,/Users/ethan/Documents/GitHub/OpenSesame/Class1,0,0,0,no,mono,no,18,no,white,no,no,768,887,3.6.1,psycho,psycho,4,osweb,1.4.11,1,pmoe,253,,0,f,,a,f,a,932,,8546,932,2737,2,psycho,817,1440,24,900,24,0,25,1440,1669274760811,1024,2,48000,-16,experiment,1,odd,MacIntel,pome,29009,30,30,30,,24,27893,28910,30,29059,30006,28959,8593,29059,ExPsyLing2022_Class1,8,7918,9,fruit_veg,yes,1024
90,90,870,870,black,no,block2,2,Mozilla,Netscape,"5.0 (Macintosh; Intel Mac OS X 10_15_7) AppleWebKit/605.1.15 (KHTML, like Gecko) Version/16.1 Safari/605.1.15",psycho,psycho,psycho,0,fully-scrambled,uniform,1,1,f,9,0,0,0,9,0,0,9,9,0,9,9,0,9,0,9,9,24-10-22,24-10-22,08:24:47,Thu Nov 24 2022 08:24:47 GMT+0100 (Centraleuropæisk normaltid),The main experiment item,yes,0,0,/Users/ethan/Documents/GitHub/OpenSesame/Class1,0,0,0,no,mono,no,18,no,white,no,no,768,887,3.6.1,psycho,psycho,8,osweb,1.4.11,1,genlgtpa,253,,0,f,,a,f,a,778,,8546,778,2737,2,psycho,817,1440,24,900,24,0,25,1440,1669274760811,1024,2,48000,-16,experiment,1,odd,MacIntel,eggplant,31125,30,30,30,,24,30026,31043,30,31175,31956,31092,8593,31175,ExPsyLing2022_Class1,9,8696,10,fruit_veg,yes,1024
91,91,854,854,black,no,block2,2,Mozilla,Netscape,"5.0 (Macintosh; Intel Mac OS X 10_15_7) AppleWebKit/605.1.15 (KHTML, like Gecko) Version/16.1 Safari/605.1.15",psycho,psycho,psycho,0,semi-scrambled,uniform,1,1,a,10,0,0,0,10,0,0,10,10,0,10,10,0,10,0,10,10,24-10-22,24-10-22,08:24:47,Thu Nov 24 2022 08:24:47 GMT+0100 (Centraleuropæisk normaltid),The main experiment item,yes,0,0,/Users/ethan/Documents/GitHub/OpenSesame/Class1,0,0,0,no,mono,no,18,no,white,no,no,768,887,3.6.1,psycho,psycho,5,osweb,1.4.11,1,boisn,253,,0,a,,a,a,a,694,,8546,694,2737,2,psycho,817,1440,24,900,24,0,25,1440,1669274760811,1024,2,48000,-16,experiment,1,odd,MacIntel,bison,33076,30,30,30,,24,31976,32992,30,33125,33823,33042,8593,33125,ExPsyLing2022_Class1,10,9390,11,animal,yes,1024
92,92,885,885,black,no,block2,2,Mozilla,Netscape,"5.0 (Macintosh; Intel Mac OS X 10_15_7) AppleWebKit/605.1.15 (KHTML, like Gecko) Version/16.1 Safari/605.1.15",psycho,psycho,psycho,0,identical,uniform,1,1,f,11,0,0,0,11,0,0,11,11,0,11,11,0,11,0,11,11,24-10-22,24-10-22,08:24:47,Thu Nov 24 2022 08:24:47 GMT+0100 (Centraleuropæisk normaltid),The main experiment item,yes,0,0,/Users/ethan/Documents/GitHub/OpenSesame/Class1,0,0,0,no,mono,no,18,no,white,no,no,768,887,3.6.1,psycho,psycho,8,osweb,1.4.11,1,beetroot,253,,0,f,,a,f,a,1230,,8546,1230,2737,2,psycho,817,1440,24,900,24,0,25,1440,1669274760811,1024,2,48000,-16,experiment,1,odd,MacIntel,beetroot,34959,30,30,30,,24,33842,34860,30,35009,36239,34909,8593,35009,ExPsyLing2022_Class1,11,10620,12,fruit_veg,yes,1024
92,92,867,867,black,no,block2,2,Mozilla,Netscape,"5.0 (Macintosh; Intel Mac OS X 10_15_7) AppleWebKit/605.1.15 (KHTML, like Gecko) Version/16.1 Safari/605.1.15",psycho,psycho,psycho,0,semi-scrambled,uniform,1,1,f,12,0,0,0,12,0,0,12,12,0,12,12,0,12,0,12,12,24-10-22,24-10-22,08:24:47,Thu Nov 24 2022 08:24:47 GMT+0100 (Centraleuropæisk normaltid),The main experiment item,yes,0,0,/Users/ethan/Documents/GitHub/OpenSesame/Class1,0,0,0,no,mono,no,18,no,white,no,no,768,887,3.6.1,psycho,psycho,5,osweb,1.4.11,1,gapre,253,,0,f,,a,f,a,646,,8546,646,2737,2,psycho,817,1440,24,900,24,0,25,1440,1669274760811,1024,2,48000,-16,experiment,1,odd,MacIntel,grape,37374,30,30,30,,24,36261,37276,30,37426,38073,37327,8593,37425,ExPsyLing2022_Class1,12,11266,13,fruit_veg,yes,1024
93,93,867,867,black,no,block2,2,Mozilla,Netscape,"5.0 (Macintosh; Intel Mac OS X 10_15_7) AppleWebKit/605.1.15 (KHTML, like Gecko) Version/16.1 Safari/605.1.15",psycho,psycho,psycho,0,fully-scrambled,uniform,1,1,a,13,0,0,0,13,0,0,13,13,0,13,13,0,13,0,13,13,24-10-22,24-10-22,08:24:47,Thu Nov 24 2022 08:24:47 GMT+0100 (Centraleuropæisk normaltid),The main experiment item,yes,0,0,/Users/ethan/Documents/GitHub/OpenSesame/Class1,0,0,0,no,mono,no,18,no,white,no,no,768,887,3.6.1,psycho,psycho,4,osweb,1.4.11,1,lulb,253,,0,a,,a,a,a,873,,8546,873,2737,2,psycho,817,1440,24,900,24,0,25,1440,1669274760811,1024,2,48000,-16,experiment,1,odd,MacIntel,bull,39209,30,30,30,,24,38094,39109,30,39259,40139,39160,8593,39259,ExPsyLing2022_Class1,13,12139,14,animal,yes,1024
93,93,857,857,black,no,block2,2,Mozilla,Netscape,"5.0 (Macintosh; Intel Mac OS X 10_15_7) AppleWebKit/605.1.15 (KHTML, like Gecko) Version/16.1 Safari/605.1.15",psycho,psycho,psycho,0,fully-scrambled,uniform,1,1,f,14,0,0,0,14,0,0,14,14,0,14,14,0,14,0,14,14,24-10-22,24-10-22,08:24:47,Thu Nov 24 2022 08:24:47 GMT+0100 (Centraleuropæisk normaltid),The main experiment item,yes,0,0,/Users/ethan/Documents/GitHub/OpenSesame/Class1,0,0,0,no,mono,no,18,no,white,no,no,768,887,3.6.1,psycho,psycho,7,osweb,1.4.11,1,panhcsi,253,,0,f,,a,f,a,722,,8546,722,2737,2,psycho,817,1440,24,900,24,0,25,1440,1669274760811,1024,2,48000,-16,experiment,1,odd,MacIntel,spinach,41276,30,30,30,,24,40159,41176,30,41325,42056,41227,8593,41325,ExPsyLing2022_Class1,14,12861,15,fruit_veg,yes,1024
94,94,883,883,black,no,block2,2,Mozilla,Netscape,"5.0 (Macintosh; Intel Mac OS X 10_15_7) AppleWebKit/605.1.15 (KHTML, like Gecko) Version/16.1 Safari/605.1.15",psycho,psycho,psycho,0,fully-scrambled,uniform,1,1,f,15,0,0,0,15,0,0,15,15,0,15,15,0,15,0,15,15,24-10-22,24-10-22,08:24:47,Thu Nov 24 2022 08:24:47 GMT+0100 (Centraleuropæisk normaltid),The main experiment item,yes,0,0,/Users/ethan/Documents/GitHub/OpenSesame/Class1,0,0,0,no,mono,no,18,no,white,no,no,768,887,3.6.1,psycho,psycho,4,osweb,1.4.11,1,naeb,253,,0,f,,a,f,a,1262,,8546,1262,2737,2,psycho,817,1440,24,900,24,0,25,1440,1669274760811,1024,2,48000,-16,experiment,1,odd,MacIntel,bean,43192,30,30,30,,24,42076,43094,30,43242,44506,43143,8593,43242,ExPsyLing2022_Class1,15,14123,16,fruit_veg,yes,1024
94,94,869,869,black,no,block2,2,Mozilla,Netscape,"5.0 (Macintosh; Intel Mac OS X 10_15_7) AppleWebKit/605.1.15 (KHTML, like Gecko) Version/16.1 Safari/605.1.15",psycho,psycho,psycho,0,identical,uniform,1,1,f,16,0,0,0,16,0,0,16,16,0,16,16,0,16,0,16,16,24-10-22,24-10-22,08:24:47,Thu Nov 24 2022 08:24:47 GMT+0100 (Centraleuropæisk normaltid),The main experiment item,yes,0,0,/Users/ethan/Documents/GitHub/OpenSesame/Class1,0,0,0,no,mono,no,18,no,white,no,no,768,887,3.6.1,psycho,psycho,8,osweb,1.4.11,1,scallion,253,,0,f,,a,f,a,644,,8546,644,2737,2,psycho,817,1440,24,900,24,0,25,1440,1669274760811,1024,2,48000,-16,experiment,1,odd,MacIntel,scallion,45643,30,30,30,,24,44525,45543,30,45693,46340,45594,8593,45692,ExPsyLing2022_Class1,16,14767,17,fruit_veg,yes,1024
94,94,858,858,black,no,block2,2,Mozilla,Netscape,"5.0 (Macintosh; Intel Mac OS X 10_15_7) AppleWebKit/605.1.15 (KHTML, like Gecko) Version/16.1 Safari/605.1.15",psycho,psycho,psycho,0,identical,uniform,1,1,a,17,0,0,0,17,0,0,17,17,0,17,17,0,17,0,17,17,24-10-22,24-10-22,08:24:47,Thu Nov 24 2022 08:24:47 GMT+0100 (Centraleuropæisk normaltid),The main experiment item,yes,0,0,/Users/ethan/Documents/GitHub/OpenSesame/Class1,0,0,0,no,mono,no,18,no,white,no,no,768,887,3.6.1,psycho,psycho,4,osweb,1.4.11,1,calf,253,,0,a,,a,a,a,674,,8546,674,2737,2,psycho,817,1440,24,900,24,0,25,1440,1669274760811,1024,2,48000,-16,experiment,1,odd,MacIntel,calf,47478,30,30,30,,24,46359,47379,30,47526,48207,47428,8593,47526,ExPsyLing2022_Class1,17,15441,18,animal,yes,1024
95,95,847,847,black,no,block2,2,Mozilla,Netscape,"5.0 (Macintosh; Intel Mac OS X 10_15_7) AppleWebKit/605.1.15 (KHTML, like Gecko) Version/16.1 Safari/605.1.15",psycho,psycho,psycho,0,identical,uniform,1,1,f,18,0,0,0,18,0,0,18,18,0,18,18,0,18,0,18,18,24-10-22,24-10-22,08:24:47,Thu Nov 24 2022 08:24:47 GMT+0100 (Centraleuropæisk normaltid),The main experiment item,yes,0,0,/Users/ethan/Documents/GitHub/OpenSesame/Class1,0,0,0,no,mono,no,18,no,white,no,no,768,887,3.6.1,psycho,psycho,6,osweb,1.4.11,1,garlic,253,,0,f,,a,f,a,651,,8546,651,2737,2,psycho,817,1440,24,900,24,0,25,1440,1669274760811,1024,2,48000,-16,experiment,1,odd,MacIntel,garlic,49343,30,30,30,,24,48232,49244,30,49393,50057,49294,8593,49393,ExPsyLing2022_Class1,18,16092,19,fruit_veg,yes,1024
95,95,837,837,black,no,block2,2,Mozilla,Netscape,"5.0 (Macintosh; Intel Mac OS X 10_15_7) AppleWebKit/605.1.15 (KHTML, like Gecko) Version/16.1 Safari/605.1.15",psycho,psycho,psycho,0,fully-scrambled,uniform,1,1,a,19,0,0,0,19,0,0,19,19,0,19,19,0,19,0,19,19,24-10-22,24-10-22,08:24:47,Thu Nov 24 2022 08:24:47 GMT+0100 (Centraleuropæisk normaltid),The main experiment item,yes,0,0,/Users/ethan/Documents/GitHub/OpenSesame/Class1,0,0,0,no,mono,no,18,no,white,no,no,768,887,3.6.1,psycho,psycho,5,osweb,1.4.11,1,umeso,253,,0,a,,a,a,a,647,,8546,647,2737,2,psycho,817,1440,24,900,24,0,25,1440,1669274760811,1024,2,48000,-16,experiment,1,odd,MacIntel,mouse,51192,30,30,30,,24,50079,51095,30,51243,51890,51143,8593,51243,ExPsyLing2022_Class1,19,16739,20,animal,yes,1024
95,95,830,830,black,no,block2,2,Mozilla,Netscape,"5.0 (Macintosh; Intel Mac OS X 10_15_7) AppleWebKit/605.1.15 (KHTML, like Gecko) Version/16.1 Safari/605.1.15",psycho,psycho,psycho,0,identical,uniform,1,1,f,20,0,0,0,20,0,0,20,20,0,20,20,0,20,0,20,20,24-10-22,24-10-22,08:24:47,Thu Nov 24 2022 08:24:47 GMT+0100 (Centraleuropæisk normaltid),The main experiment item,yes,0,0,/Users/ethan/Documents/GitHub/OpenSesame/Class1,0,0,0,no,mono,no,18,no,white,no,no,768,887,3.6.1,psycho,psycho,4,osweb,1.4.11,1,date,253,,0,f,,a,f,a,689,,8546,689,2737,2,psycho,817,1440,24,900,24,0,25,1440,1669274760811,1024,2,48000,-16,experiment,1,odd,MacIntel,date,53026,30,30,30,,24,51909,52926,30,53076,53773,52977,8593,53076,ExPsyLing2022_Class1,20,17428,21,fruit_veg,yes,1024
95,95,823,823,black,no,block2,2,Mozilla,Netscape,"5.0 (Macintosh; Intel Mac OS X 10_15_7) AppleWebKit/605.1.15 (KHTML, like Gecko) Version/16.1 Safari/605.1.15",psycho,psycho,psycho,0,fully-scrambled,uniform,1,1,f,21,0,0,0,21,0,0,21,21,0,21,21,0,21,0,21,21,24-10-22,24-10-22,08:24:47,Thu Nov 24 2022 08:24:47 GMT+0100 (Centraleuropæisk normaltid),The main experiment item,yes,0,0,/Users/ethan/Documents/GitHub/OpenSesame/Class1,0,0,0,no,mono,no,18,no,white,no,no,768,887,3.6.1,psycho,psycho,7,osweb,1.4.11,1,tleutec,253,,0,f,,a,f,a,668,,8546,668,2737,2,psycho,817,1440,24,900,24,0,25,1440,1669274760811,1024,2,48000,-16,experiment,1,odd,MacIntel,lettuce,54909,30,30,30,,24,53793,54811,30,54959,55640,54860,8593,54959,ExPsyLing2022_Class1,21,18096,22,fruit_veg,yes,1024
96,96,811,811,black,no,block2,2,Mozilla,Netscape,"5.0 (Macintosh; Intel Mac OS X 10_15_7) AppleWebKit/605.1.15 (KHTML, like Gecko) Version/16.1 Safari/605.1.15",psycho,psycho,psycho,0,identical,uniform,1,1,a,22,0,0,0,22,0,0,22,22,0,22,22,0,22,0,22,22,24-10-22,24-10-22,08:24:47,Thu Nov 24 2022 08:24:47 GMT+0100 (Centraleuropæisk normaltid),The main experiment item,yes,0,0,/Users/ethan/Documents/GitHub/OpenSesame/Class1,0,0,0,no,mono,no,18,no,white,no,no,768,887,3.6.1,psycho,psycho,7,osweb,1.4.11,1,penguin,253,,0,a,,a,a,a,561,,8546,561,2737,2,psycho,817,1440,24,900,24,0,25,1440,1669274760811,1024,2,48000,-16,experiment,1,odd,MacIntel,penguin,56777,30,30,30,,24,55659,56677,30,56826,57390,56727,8593,56826,ExPsyLing2022_Class1,22,18657,23,animal,yes,1024
96,96,802,802,black,no,block2,2,Mozilla,Netscape,"5.0 (Macintosh; Intel Mac OS X 10_15_7) AppleWebKit/605.1.15 (KHTML, like Gecko) Version/16.1 Safari/605.1.15",psycho,psycho,psycho,0,identical,uniform,1,1,a,23,0,0,0,23,0,0,23,23,0,23,23,0,23,0,23,23,24-10-22,24-10-22,08:24:47,Thu Nov 24 2022 08:24:47 GMT+0100 (Centraleuropæisk normaltid),The main experiment item,yes,0,0,/Users/ethan/Documents/GitHub/OpenSesame/Class1,0,0,0,no,mono,no,18,no,white,no,no,768,887,3.6.1,psycho,psycho,5,osweb,1.4.11,1,horse,253,,0,a,,a,a,a,581,,8546,581,2737,2,psycho,817,1440,24,900,24,0,25,1440,1669274760811,1024,2,48000,-16,experiment,1,odd,MacIntel,horse,58509,30,30,30,,24,57409,58427,30,58559,59140,58476,8593,58559,ExPsyLing2022_Class1,23,19238,24,animal,yes,1024
96,96,795,795,black,no,block2,2,Mozilla,Netscape,"5.0 (Macintosh; Intel Mac OS X 10_15_7) AppleWebKit/605.1.15 (KHTML, like Gecko) Version/16.1 Safari/605.1.15",psycho,psycho,psycho,0,semi-scrambled,uniform,1,1,a,24,0,0,0,24,0,0,24,24,0,24,24,0,24,0,24,24,24-10-22,24-10-22,08:24:47,Thu Nov 24 2022 08:24:47 GMT+0100 (Centraleuropæisk normaltid),The main experiment item,yes,0,0,/Users/ethan/Documents/GitHub/OpenSesame/Class1,0,0,0,no,mono,no,18,no,white,no,no,768,887,3.6.1,psycho,psycho,6,osweb,1.4.11,1,juaagr,253,,0,a,,a,a,a,640,,8546,640,2737,2,psycho,817,1440,24,900,24,0,25,1440,1669274760811,1024,2,48000,-16,experiment,1,odd,MacIntel,jaguar,60277,30,30,30,,24,59159,60177,30,60326,60974,60227,8593,60326,ExPsyLing2022_Class1,24,19878,25,animal,yes,1024
96,96,784,784,black,no,block2,2,Mozilla,Netscape,"5.0 (Macintosh; Intel Mac OS X 10_15_7) AppleWebKit/605.1.15 (KHTML, like Gecko) Version/16.1 Safari/605.1.15",psycho,psycho,psycho,0,fully-scrambled,uniform,1,1,a,25,0,0,0,25,0,0,25,25,0,25,25,0,25,0,25,25,24-10-22,24-10-22,08:24:47,Thu Nov 24 2022 08:24:47 GMT+0100 (Centraleuropæisk normaltid),The main experiment item,yes,0,0,/Users/ethan/Documents/GitHub/OpenSesame/Class1,0,0,0,no,mono,no,18,no,white,no,no,768,887,3.6.1,psycho,psycho,4,osweb,1.4.11,1,imkn,253,,0,a,,a,a,a,513,,8546,513,2737,2,psycho,817,1440,24,900,24,0,25,1440,1669274760811,1024,2,48000,-16,experiment,1,odd,MacIntel,mink,62110,30,30,30,,24,60992,62011,30,62160,62674,62061,8593,62160,ExPsyLing2022_Class1,25,20391,26,animal,yes,1024
96,96,775,775,black,no,block2,2,Mozilla,Netscape,"5.0 (Macintosh; Intel Mac OS X 10_15_7) AppleWebKit/605.1.15 (KHTML, like Gecko) Version/16.1 Safari/605.1.15",psycho,psycho,psycho,0,semi-scrambled,uniform,1,1,a,26,0,0,0,26,0,0,26,26,0,26,26,0,26,0,26,26,24-10-22,24-10-22,08:24:47,Thu Nov 24 2022 08:24:47 GMT+0100 (Centraleuropæisk normaltid),The main experiment item,yes,0,0,/Users/ethan/Documents/GitHub/OpenSesame/Class1,0,0,0,no,mono,no,18,no,white,no,no,768,887,3.6.1,psycho,psycho,5,osweb,1.4.11,1,rnhio,253,,0,a,,a,a,a,531,,8546,531,2737,2,psycho,817,1440,24,900,24,0,25,1440,1669274760811,1024,2,48000,-16,experiment,1,odd,MacIntel,rhino,63810,30,30,30,,24,62693,63710,30,63860,64407,63761,8593,63860,ExPsyLing2022_Class1,26,20922,27,animal,yes,1024
96,96,765,765,black,no,block2,2,Mozilla,Netscape,"5.0 (Macintosh; Intel Mac OS X 10_15_7) AppleWebKit/605.1.15 (KHTML, like Gecko) Version/16.1 Safari/605.1.15",psycho,psycho,psycho,0,identical,uniform,1,1,a,27,0,0,0,27,0,0,27,27,0,27,27,0,27,0,27,27,24-10-22,24-10-22,08:24:47,Thu Nov 24 2022 08:24:47 GMT+0100 (Centraleuropæisk normaltid),The main experiment item,yes,0,0,/Users/ethan/Documents/GitHub/OpenSesame/Class1,0,0,0,no,mono,no,18,no,white,no,no,768,887,3.6.1,psycho,psycho,6,osweb,1.4.11,1,donkey,253,,0,a,,a,a,a,485,,8546,485,2737,2,psycho,817,1440,24,900,24,0,25,1440,1669274760811,1024,2,48000,-16,experiment,1,odd,MacIntel,donkey,65543,30,30,30,,24,64427,65444,30,65593,66090,65494,8593,65593,ExPsyLing2022_Class1,27,21407,28,animal,yes,1024
97,97,757,757,black,no,block2,2,Mozilla,Netscape,"5.0 (Macintosh; Intel Mac OS X 10_15_7) AppleWebKit/605.1.15 (KHTML, like Gecko) Version/16.1 Safari/605.1.15",psycho,psycho,psycho,0,semi-scrambled,uniform,1,1,f,28,0,0,0,28,0,0,28,28,0,28,28,0,28,0,28,28,24-10-22,24-10-22,08:24:47,Thu Nov 24 2022 08:24:47 GMT+0100 (Centraleuropæisk normaltid),The main experiment item,yes,0,0,/Users/ethan/Documents/GitHub/OpenSesame/Class1,0,0,0,no,mono,no,18,no,white,no,no,768,887,3.6.1,psycho,psycho,6,osweb,1.4.11,1,ograne,253,,0,f,,a,f,a,560,,8546,560,2737,2,psycho,817,1440,24,900,24,0,25,1440,1669274760811,1024,2,48000,-16,experiment,1,odd,MacIntel,orange,67226,30,30,30,,24,66110,67127,30,67276,67841,67178,8593,67276,ExPsyLing2022_Class1,28,21967,29,fruit_veg,yes,1024
97,97,753,753,black,no,block2,2,Mozilla,Netscape,"5.0 (Macintosh; Intel Mac OS X 10_15_7) AppleWebKit/605.1.15 (KHTML, like Gecko) Version/16.1 Safari/605.1.15",psycho,psycho,psycho,0,semi-scrambled,uniform,1,1,f,29,0,0,0,29,0,0,29,29,0,29,29,0,29,0,29,29,24-10-22,24-10-22,08:24:47,Thu Nov 24 2022 08:24:47 GMT+0100 (Centraleuropæisk normaltid),The main experiment item,yes,0,0,/Users/ethan/Documents/GitHub/OpenSesame/Class1,0,0,0,no,mono,no,18,no,white,no,no,768,887,3.6.1,psycho,psycho,8,osweb,1.4.11,1,bclorcoi,253,,0,f,,a,f,a,620,,8546,620,2737,2,psycho,817,1440,24,900,24,0,25,1440,1669274760811,1024,2,48000,-16,experiment,1,odd,MacIntel,broccoli,68977,30,30,30,,24,67859,68878,30,69027,69657,68927,8593,69027,ExPsyLing2022_Class1,29,22587,30,fruit_veg,yes,1024
97,97,748,748,black,no,block2,2,Mozilla,Netscape,"5.0 (Macintosh; Intel Mac OS X 10_15_7) AppleWebKit/605.1.15 (KHTML, like Gecko) Version/16.1 Safari/605.1.15",psycho,psycho,psycho,0,identical,uniform,1,1,a,30,0,0,0,30,0,0,30,30,0,30,30,0,30,0,30,30,24-10-22,24-10-22,08:24:47,Thu Nov 24 2022 08:24:47 GMT+0100 (Centraleuropæisk normaltid),The main experiment item,yes,0,0,/Users/ethan/Documents/GitHub/OpenSesame/Class1,0,0,0,no,mono,no,18,no,white,no,no,768,887,3.6.1,psycho,psycho,7,osweb,1.4.11,1,chicken,253,,0,a,,a,a,a,612,,8546,612,2737,2,psycho,817,1440,24,900,24,0,25,1440,1669274760811,1024,2,48000,-16,experiment,1,odd,MacIntel,chicken,70794,30,30,30,,24,69676,70694,30,70843,71457,70744,8593,70843,ExPsyLing2022_Class1,30,23199,31,animal,yes,1024
97,97,749,749,black,no,block2,2,Mozilla,Netscape,"5.0 (Macintosh; Intel Mac OS X 10_15_7) AppleWebKit/605.1.15 (KHTML, like Gecko) Version/16.1 Safari/605.1.15",psycho,psycho,psycho,0,identical,uniform,1,1,f,31,0,0,0,31,0,0,31,31,0,31,31,0,31,0,31,31,24-10-22,24-10-22,08:24:47,Thu Nov 24 2022 08:24:47 GMT+0100 (Centraleuropæisk normaltid),The main experiment item,yes,0,0,/Users/ethan/Documents/GitHub/OpenSesame/Class1,0,0,0,no,mono,no,18,no,white,no,no,768,887,3.6.1,psycho,psycho,7,osweb,1.4.11,1,avocado,253,,0,f,,a,f,a,756,,8546,756,2737,2,psycho,817,1440,24,900,24,0,25,1440,1669274760811,1024,2,48000,-16,experiment,1,odd,MacIntel,avocado,72593,30,30,30,,24,71474,72495,30,72643,73407,72544,8593,72643,ExPsyLing2022_Class1,31,23955,32,fruit_veg,yes,1024
97,97,743,743,black,no,block2,2,Mozilla,Netscape,"5.0 (Macintosh; Intel Mac OS X 10_15_7) AppleWebKit/605.1.15 (KHTML, like Gecko) Version/16.1 Safari/605.1.15",psycho,psycho,psycho,0,semi-scrambled,uniform,1,1,f,32,0,0,0,32,0,0,32,32,0,32,32,0,32,0,32,32,24-10-22,24-10-22,08:24:47,Thu Nov 24 2022 08:24:47 GMT+0100 (Centraleuropæisk normaltid),The main experiment item,yes,0,0,/Users/ethan/Documents/GitHub/OpenSesame/Class1,0,0,0,no,mono,no,18,no,white,no,no,768,887,3.6.1,psycho,psycho,4,osweb,1.4.11,1,pulm,253,,0,f,,a,f,a,559,,8546,559,2737,2,psycho,817,1440,24,900,24,0,25,1440,1669274760811,1024,2,48000,-16,experiment,1,odd,MacIntel,plum,74543,30,30,30,,24,73425,74444,30,74593,75157,74494,8593,74593,ExPsyLing2022_Class1,32,24514,33,fruit_veg,yes,1024
97,97,740,740,black,no,block2,2,Mozilla,Netscape,"5.0 (Macintosh; Intel Mac OS X 10_15_7) AppleWebKit/605.1.15 (KHTML, like Gecko) Version/16.1 Safari/605.1.15",psycho,psycho,psycho,0,fully-scrambled,uniform,1,1,a,33,0,0,0,33,0,0,33,33,0,33,33,0,33,0,33,33,24-10-22,24-10-22,08:24:47,Thu Nov 24 2022 08:24:47 GMT+0100 (Centraleuropæisk normaltid),The main experiment item,yes,0,0,/Users/ethan/Documents/GitHub/OpenSesame/Class1,0,0,0,no,mono,no,18,no,white,no,no,768,887,3.6.1,psycho,psycho,5,osweb,1.4.11,1,reigt,253,,0,a,,a,a,a,629,,8546,629,2737,2,psycho,817,1440,24,900,24,0,25,1440,1669274760811,1024,2,48000,-16,experiment,1,odd,MacIntel,tiger,76294,30,30,30,,24,75176,76194,30,76344,76974,76244,8593,76344,ExPsyLing2022_Class1,33,25143,34,animal,yes,1024
97,97,741,741,black,no,block2,2,Mozilla,Netscape,"5.0 (Macintosh; Intel Mac OS X 10_15_7) AppleWebKit/605.1.15 (KHTML, like Gecko) Version/16.1 Safari/605.1.15",psycho,psycho,psycho,0,fully-scrambled,uniform,1,1,a,34,0,0,0,34,0,0,34,34,0,34,34,0,34,0,34,34,24-10-22,24-10-22,08:24:47,Thu Nov 24 2022 08:24:47 GMT+0100 (Centraleuropæisk normaltid),The main experiment item,yes,0,0,/Users/ethan/Documents/GitHub/OpenSesame/Class1,0,0,0,no,mono,no,18,no,white,no,no,768,887,3.6.1,psycho,psycho,4,osweb,1.4.11,1,ehar,253,,0,a,,a,a,a,808,,8546,808,2737,2,psycho,817,1440,24,900,24,0,25,1440,1669274760811,1024,2,48000,-16,experiment,1,odd,MacIntel,hare,78110,30,30,30,,24,76994,78011,30,78160,78975,78061,8593,78160,ExPsyLing2022_Class1,34,25951,35,animal,yes,1024
97,97,735,735,black,no,block2,2,Mozilla,Netscape,"5.0 (Macintosh; Intel Mac OS X 10_15_7) AppleWebKit/605.1.15 (KHTML, like Gecko) Version/16.1 Safari/605.1.15",psycho,psycho,psycho,0,semi-scrambled,uniform,1,1,a,35,0,0,0,35,0,0,35,35,0,35,35,0,35,0,35,35,24-10-22,24-10-22,08:24:47,Thu Nov 24 2022 08:24:47 GMT+0100 (Centraleuropæisk normaltid),The main experiment item,yes,0,0,/Users/ethan/Documents/GitHub/OpenSesame/Class1,0,0,0,no,mono,no,18,no,white,no,no,768,887,3.6.1,psycho,psycho,7,osweb,1.4.11,1,rooaccn,253,,0,a,,a,a,a,507,,8546,507,2737,2,psycho,817,1440,24,900,24,0,25,1440,1669274760811,1024,2,48000,-16,experiment,1,odd,MacIntel,raccoon,80094,30,30,30,,24,78993,80011,30,80144,80658,80060,8593,80144,ExPsyLing2022_Class1,35,26458,36,animal,yes,1024
97,97,729,729,black,no,block2,2,Mozilla,Netscape,"5.0 (Macintosh; Intel Mac OS X 10_15_7) AppleWebKit/605.1.15 (KHTML, like Gecko) Version/16.1 Safari/605.1.15",psycho,psycho,psycho,0,semi-scrambled,uniform,1,1,f,36,0,0,0,36,0,0,36,36,0,36,36,0,36,0,36,36,24-10-22,24-10-22,08:24:47,Thu Nov 24 2022 08:24:47 GMT+0100 (Centraleuropæisk normaltid),The main experiment item,yes,0,0,/Users/ethan/Documents/GitHub/OpenSesame/Class1,0,0,0,no,mono,no,18,no,white,no,no,768,887,3.6.1,psycho,psycho,8,osweb,1.4.11,1,zcnhcuii,253,,0,f,,a,f,a,512,,8546,512,2737,2,psycho,817,1440,24,900,24,0,25,1440,1669274760811,1024,2,48000,-16,experiment,1,odd,MacIntel,zucchini,81794,30,30,30,,24,80676,81694,30,81844,82358,81745,8593,81844,ExPsyLing2022_Class1,36,26970,37,fruit_veg,yes,1024
97,97,727,727,black,no,block2,2,Mozilla,Netscape,"5.0 (Macintosh; Intel Mac OS X 10_15_7) AppleWebKit/605.1.15 (KHTML, like Gecko) Version/16.1 Safari/605.1.15",psycho,psycho,psycho,0,fully-scrambled,uniform,1,1,a,37,0,0,0,37,0,0,37,37,0,37,37,0,37,0,37,37,24-10-22,24-10-22,08:24:47,Thu Nov 24 2022 08:24:47 GMT+0100 (Centraleuropæisk normaltid),The main experiment item,yes,0,0,/Users/ethan/Documents/GitHub/OpenSesame/Class1,0,0,0,no,mono,no,18,no,white,no,no,768,887,3.6.1,psycho,psycho,5,osweb,1.4.11,1,alemc,253,,0,a,,a,a,a,663,,8546,663,2737,2,psycho,817,1440,24,900,24,0,25,1440,1669274760811,1024,2,48000,-16,experiment,1,odd,MacIntel,camel,83477,30,30,30,,24,82377,83395,30,83527,84191,83444,8593,83527,ExPsyLing2022_Class1,37,27633,38,animal,yes,1024
97,97,724,724,black,no,block2,2,Mozilla,Netscape,"5.0 (Macintosh; Intel Mac OS X 10_15_7) AppleWebKit/605.1.15 (KHTML, like Gecko) Version/16.1 Safari/605.1.15",psycho,psycho,psycho,0,fully-scrambled,uniform,1,1,f,38,0,0,0,38,0,0,38,38,0,38,38,0,38,0,38,38,24-10-22,24-10-22,08:24:47,Thu Nov 24 2022 08:24:47 GMT+0100 (Centraleuropæisk normaltid),The main experiment item,yes,0,0,/Users/ethan/Documents/GitHub/OpenSesame/Class1,0,0,0,no,mono,no,18,no,white,no,no,768,887,3.6.1,psycho,psycho,6,osweb,1.4.11,1,hcreyr,253,,0,f,,a,f,a,599,,8546,599,2737,2,psycho,817,1440,24,900,24,0,25,1440,1669274760811,1024,2,48000,-16,experiment,1,odd,MacIntel,cherry,85327,30,30,30,,24,84210,85227,30,85377,85991,85278,8593,85377,ExPsyLing2022_Class1,38,28232,39,fruit_veg,yes,1024
98,98,722,722,black,no,block2,2,Mozilla,Netscape,"5.0 (Macintosh; Intel Mac OS X 10_15_7) AppleWebKit/605.1.15 (KHTML, like Gecko) Version/16.1 Safari/605.1.15",psycho,psycho,psycho,0,fully-scrambled,uniform,1,1,f,39,0,0,0,39,0,0,39,39,0,39,39,0,39,0,39,39,24-10-22,24-10-22,08:24:47,Thu Nov 24 2022 08:24:47 GMT+0100 (Centraleuropæisk normaltid),The main experiment item,yes,0,0,/Users/ethan/Documents/GitHub/OpenSesame/Class1,0,0,0,no,mono,no,18,no,white,no,no,768,887,3.6.1,psycho,psycho,4,osweb,1.4.11,1,elim,253,,0,f,,a,f,a,638,,8546,638,2737,2,psycho,817,1440,24,900,24,0,25,1440,1669274760811,1024,2,48000,-16,experiment,1,odd,MacIntel,lime,87111,30,30,30,,24,86006,87011,30,87161,87808,87061,8593,87161,ExPsyLing2022_Class1,39,28870,40,fruit_veg,yes,1024
98,98,717,717,black,no,block2,2,Mozilla,Netscape,"5.0 (Macintosh; Intel Mac OS X 10_15_7) AppleWebKit/605.1.15 (KHTML, like Gecko) Version/16.1 Safari/605.1.15",psycho,psycho,psycho,0,identical,uniform,1,1,f,40,0,0,0,40,0,0,40,40,0,40,40,0,40,0,40,40,24-10-22,24-10-22,08:24:47,Thu Nov 24 2022 08:24:47 GMT+0100 (Centraleuropæisk normaltid),The main experiment item,yes,0,0,/Users/ethan/Documents/GitHub/OpenSesame/Class1,0,0,0,no,mono,no,18,no,white,no,no,768,887,3.6.1,psycho,psycho,6,osweb,1.4.11,1,potato,253,,0,f,f,a,f,a,512,2747,8546,512,2737,2,psycho,817,1440,24,900,24,0,25,1440,1669274760811,1024,2,48000,-16,experiment,1,odd,MacIntel,potato,91694,30,30,30,87829,24,90595,91612,30,91744,92258,91661,8593,91744,ExPsyLing2022_Class1,40,29382,41,fruit_veg,yes,1024
98,98,712,712,black,no,block2,2,Mozilla,Netscape,"5.0 (Macintosh; Intel Mac OS X 10_15_7) AppleWebKit/605.1.15 (KHTML, like Gecko) Version/16.1 Safari/605.1.15",psycho,psycho,psycho,0,identical,uniform,1,1,a,41,0,0,0,41,0,0,41,41,0,41,41,0,41,0,41,41,24-10-22,24-10-22,08:24:47,Thu Nov 24 2022 08:24:47 GMT+0100 (Centraleuropæisk normaltid),The main experiment item,yes,0,0,/Users/ethan/Documents/GitHub/OpenSesame/Class1,0,0,0,no,mono,no,18,no,white,no,no,768,887,3.6.1,psycho,psycho,7,osweb,1.4.11,1,hamster,253,,0,a,f,a,a,a,517,2747,8546,517,2737,2,psycho,817,1440,24,900,24,0,25,1440,1669274760811,1024,2,48000,-16,experiment,1,odd,MacIntel,hamster,93378,30,30,30,87829,24,92277,93295,30,93427,93958,93344,8593,93427,ExPsyLing2022_Class1,41,29899,42,animal,yes,1024
98,98,708,708,black,no,block2,2,Mozilla,Netscape,"5.0 (Macintosh; Intel Mac OS X 10_15_7) AppleWebKit/605.1.15 (KHTML, like Gecko) Version/16.1 Safari/605.1.15",psycho,psycho,psycho,0,semi-scrambled,uniform,1,1,f,42,0,0,0,42,0,0,42,42,0,42,42,0,42,0,42,42,24-10-22,24-10-22,08:24:47,Thu Nov 24 2022 08:24:47 GMT+0100 (Centraleuropæisk normaltid),The main experiment item,yes,0,0,/Users/ethan/Documents/GitHub/OpenSesame/Class1,0,0,0,no,mono,no,18,no,white,no,no,768,887,3.6.1,psycho,psycho,5,osweb,1.4.11,1,ooinn,253,,0,f,f,a,f,a,542,2747,8546,542,2737,2,psycho,817,1440,24,900,24,0,25,1440,1669274760811,1024,2,48000,-16,experiment,1,odd,MacIntel,onion,95094,30,30,30,87829,24,93978,94995,30,95144,95692,95045,8593,95144,ExPsyLing2022_Class1,42,30441,43,fruit_veg,yes,1024
98,98,706,706,black,no,block2,2,Mozilla,Netscape,"5.0 (Macintosh; Intel Mac OS X 10_15_7) AppleWebKit/605.1.15 (KHTML, like Gecko) Version/16.1 Safari/605.1.15",psycho,psycho,psycho,0,semi-scrambled,uniform,1,1,a,43,0,0,0,43,0,0,43,43,0,43,43,0,43,0,43,43,24-10-22,24-10-22,08:24:47,Thu Nov 24 2022 08:24:47 GMT+0100 (Centraleuropæisk normaltid),The main experiment item,yes,0,0,/Users/ethan/Documents/GitHub/OpenSesame/Class1,0,0,0,no,mono,no,18,no,white,no,no,768,887,3.6.1,psycho,psycho,6,osweb,1.4.11,1,wualrs,253,,0,a,f,a,a,a,624,2747,8546,624,2737,2,psycho,817,1440,24,900,24,0,25,1440,1669274760811,1024,2,48000,-16,experiment,1,odd,MacIntel,walrus,96827,30,30,30,87829,24,95710,96729,30,96878,97508,96778,8593,96878,ExPsyLing2022_Class1,43,31065,44,animal,yes,1024
98,98,706,706,black,no,block2,2,Mozilla,Netscape,"5.0 (Macintosh; Intel Mac OS X 10_15_7) AppleWebKit/605.1.15 (KHTML, like Gecko) Version/16.1 Safari/605.1.15",psycho,psycho,psycho,0,identical,uniform,1,1,a,44,0,0,0,44,0,0,44,44,0,44,44,0,44,0,44,44,24-10-22,24-10-22,08:24:47,Thu Nov 24 2022 08:24:47 GMT+0100 (Centraleuropæisk normaltid),The main experiment item,yes,0,0,/Users/ethan/Documents/GitHub/OpenSesame/Class1,0,0,0,no,mono,no,18,no,white,no,no,768,887,3.6.1,psycho,psycho,6,osweb,1.4.11,1,turtle,253,,0,a,f,a,a,a,706,2747,8546,706,2737,2,psycho,817,1440,24,900,24,0,25,1440,1669274760811,1024,2,48000,-16,experiment,1,odd,MacIntel,turtle,98644,30,30,30,87829,24,97526,98545,30,98694,99407,98595,8593,98694,ExPsyLing2022_Class1,44,31771,45,animal,yes,1024
98,98,702,702,black,no,block2,2,Mozilla,Netscape,"5.0 (Macintosh; Intel Mac OS X 10_15_7) AppleWebKit/605.1.15 (KHTML, like Gecko) Version/16.1 Safari/605.1.15",psycho,psycho,psycho,0,fully-scrambled,uniform,1,1,a,45,0,0,0,45,0,0,45,45,0,45,45,0,45,0,45,45,24-10-22,24-10-22,08:24:47,Thu Nov 24 2022 08:24:47 GMT+0100 (Centraleuropæisk normaltid),The main experiment item,yes,0,0,/Users/ethan/Documents/GitHub/OpenSesame/Class1,0,0,0,no,mono,no,18,no,white,no,no,768,887,3.6.1,psycho,psycho,8,osweb,1.4.11,1,ooarkong,253,,0,a,f,a,a,a,523,2747,8546,523,2737,2,psycho,817,1440,24,900,24,0,25,1440,1669274760811,1024,2,48000,-16,experiment,1,odd,MacIntel,kangoroo,100544,30,30,30,87829,24,99425,100446,30,100594,101125,100495,8593,100594,ExPsyLing2022_Class1,45,32294,46,animal,yes,1024
98,98,700,700,black,no,block2,2,Mozilla,Netscape,"5.0 (Macintosh; Intel Mac OS X 10_15_7) AppleWebKit/605.1.15 (KHTML, like Gecko) Version/16.1 Safari/605.1.15",psycho,psycho,psycho,0,fully-scrambled,uniform,1,1,f,46,0,0,0,46,0,0,46,46,0,46,46,0,46,0,46,46,24-10-22,24-10-22,08:24:47,Thu Nov 24 2022 08:24:47 GMT+0100 (Centraleuropæisk normaltid),The main experiment item,yes,0,0,/Users/ethan/Documents/GitHub/OpenSesame/Class1,0,0,0,no,mono,no,18,no,white,no,no,768,887,3.6.1,psycho,psycho,6,osweb,1.4.11,1,eperpp,253,,0,f,f,a,f,a,617,2747,8546,617,2737,2,psycho,817,1440,24,900,24,0,25,1440,1669274760811,1024,2,48000,-16,experiment,1,odd,MacIntel,pepper,102260,30,30,30,87829,24,101144,102162,30,102311,102942,102212,8593,102311,ExPsyLing2022_Class1,46,32911,47,fruit_veg,yes,1024
98,98,699,699,black,no,block2,2,Mozilla,Netscape,"5.0 (Macintosh; Intel Mac OS X 10_15_7) AppleWebKit/605.1.15 (KHTML, like Gecko) Version/16.1 Safari/605.1.15",psycho,psycho,psycho,0,fully-scrambled,uniform,1,1,a,47,0,0,0,47,0,0,47,47,0,47,47,0,47,0,47,47,24-10-22,24-10-22,08:24:47,Thu Nov 24 2022 08:24:47 GMT+0100 (Centraleuropæisk normaltid),The main experiment item,yes,0,0,/Users/ethan/Documents/GitHub/OpenSesame/Class1,0,0,0,no,mono,no,18,no,white,no,no,768,887,3.6.1,psycho,psycho,8,osweb,1.4.11,1,uchikmpn,253,,0,a,f,a,a,a,617,2747,8546,617,2737,2,psycho,817,1440,24,900,24,0,25,1440,1669274760811,1024,2,48000,-16,experiment,1,odd,MacIntel,chipmunk,104078,30,30,30,87829,24,102960,103979,30,104128,104759,104029,8593,104128,ExPsyLing2022_Class1,47,33528,48,animal,yes,1024
98,98,701,701,black,no,block2,2,Mozilla,Netscape,"5.0 (Macintosh; Intel Mac OS X 10_15_7) AppleWebKit/605.1.15 (KHTML, like Gecko) Version/16.1 Safari/605.1.15",psycho,psycho,psycho,0,semi-scrambled,uniform,1,1,f,48,0,0,0,48,0,0,48,48,0,48,48,0,48,0,48,48,24-10-22,24-10-22,08:24:47,Thu Nov 24 2022 08:24:47 GMT+0100 (Centraleuropæisk normaltid),The main experiment item,yes,0,0,/Users/ethan/Documents/GitHub/OpenSesame/Class1,0,0,0,no,mono,no,18,no,white,no,no,768,887,3.6.1,psycho,psycho,8,osweb,1.4.11,1,ccbmeuur,253,,0,f,f,a,f,a,803,2747,8546,803,2737,2,psycho,817,1440,24,900,24,0,25,1440,1669274760811,1024,2,48000,-16,experiment,1,odd,MacIntel,cucumber,105895,30,30,30,87829,24,104777,105795,30,105944,106759,105845,8593,105944,ExPsyLing2022_Class1,48,34331,49,fruit_veg,yes,1024
98,98,702,702,black,no,block2,2,Mozilla,Netscape,"5.0 (Macintosh; Intel Mac OS X 10_15_7) AppleWebKit/605.1.15 (KHTML, like Gecko) Version/16.1 Safari/605.1.15",psycho,psycho,psycho,0,fully-scrambled,uniform,1,1,a,49,0,0,0,49,0,0,49,49,0,49,49,0,49,0,49,49,24-10-22,24-10-22,08:24:47,Thu Nov 24 2022 08:24:47 GMT+0100 (Centraleuropæisk normaltid),The main experiment item,yes,0,0,/Users/ethan/Documents/GitHub/OpenSesame/Class1,0,0,0,no,mono,no,18,no,white,no,no,768,887,3.6.1,psycho,psycho,6,osweb,1.4.11,1,aruocg,253,,0,a,f,a,a,a,789,2747,8546,789,2737,2,psycho,817,1440,24,900,24,0,25,1440,1669274760811,1024,2,48000,-16,experiment,1,odd,MacIntel,cougar,107895,30,30,30,87829,24,106778,107795,30,107945,108742,107846,8593,107945,ExPsyLing2022_Class1,49,35120,50,animal,yes,1024
98,98,701,701,black,no,block2,2,Mozilla,Netscape,"5.0 (Macintosh; Intel Mac OS X 10_15_7) AppleWebKit/605.1.15 (KHTML, like Gecko) Version/16.1 Safari/605.1.15",psycho,psycho,psycho,0,semi-scrambled,uniform,1,1,a,50,0,0,0,50,0,0,50,50,0,50,50,0,50,0,50,50,24-10-22,24-10-22,08:24:47,Thu Nov 24 2022 08:24:47 GMT+0100 (Centraleuropæisk normaltid),The main experiment item,yes,0,0,/Users/ethan/Documents/GitHub/OpenSesame/Class1,0,0,0,no,mono,no,18,no,white,no,no,768,887,3.6.1,psycho,psycho,8,osweb,1.4.11,1,apnleote,253,,0,a,f,a,a,a,626,2747,8546,626,2737,2,psycho,817,1440,24,900,24,0,25,1440,1669274760811,1024,2,48000,-16,experiment,1,odd,MacIntel,antelope,109879,30,30,30,87829,24,108760,109779,30,109927,110559,109829,8593,109927,ExPsyLing2022_Class1,50,35746,51,animal,yes,1024
98,98,698,698,black,no,block2,2,Mozilla,Netscape,"5.0 (Macintosh; Intel Mac OS X 10_15_7) AppleWebKit/605.1.15 (KHTML, like Gecko) Version/16.1 Safari/605.1.15",psycho,psycho,psycho,0,identical,uniform,1,1,f,51,0,0,0,51,0,0,51,51,0,51,51,0,51,0,51,51,24-10-22,24-10-22,08:24:47,Thu Nov 24 2022 08:24:47 GMT+0100 (Centraleuropæisk normaltid),The main experiment item,yes,0,0,/Users/ethan/Documents/GitHub/OpenSesame/Class1,0,0,0,no,mono,no,18,no,white,no,no,768,887,3.6.1,psycho,psycho,5,osweb,1.4.11,1,lemon,253,,0,f,f,a,f,a,525,2747,8546,525,2737,2,psycho,817,1440,24,900,24,0,25,1440,1669274760811,1024,2,48000,-16,experiment,1,odd,MacIntel,lemon,111694,30,30,30,87829,24,110577,111595,30,111745,112275,111646,8593,111745,ExPsyLing2022_Class1,51,36271,52,fruit_veg,yes,1024
98,98,698,698,black,no,block2,2,Mozilla,Netscape,"5.0 (Macintosh; Intel Mac OS X 10_15_7) AppleWebKit/605.1.15 (KHTML, like Gecko) Version/16.1 Safari/605.1.15",psycho,psycho,psycho,0,semi-scrambled,uniform,1,1,f,52,0,0,0,52,0,0,52,52,0,52,52,0,52,0,52,52,24-10-22,24-10-22,08:24:47,Thu Nov 24 2022 08:24:47 GMT+0100 (Centraleuropæisk normaltid),The main experiment item,yes,0,0,/Users/ethan/Documents/GitHub/OpenSesame/Class1,0,0,0,no,mono,no,18,no,white,no,no,768,887,3.6.1,psycho,psycho,5,osweb,1.4.11,1,punre,253,,0,f,f,a,f,a,733,2747,8546,733,2737,2,psycho,817,1440,24,900,24,0,25,1440,1669274760811,1024,2,48000,-16,experiment,1,odd,MacIntel,prune,113412,30,30,30,87829,24,112294,113312,30,113461,114209,113362,8593,113461,ExPsyLing2022_Class1,52,37004,53,fruit_veg,yes,1024
98,98,701,701,black,no,block2,2,Mozilla,Netscape,"5.0 (Macintosh; Intel Mac OS X 10_15_7) AppleWebKit/605.1.15 (KHTML, like Gecko) Version/16.1 Safari/605.1.15",psycho,psycho,psycho,0,semi-scrambled,uniform,1,1,a,53,0,0,0,53,0,0,53,53,0,53,53,0,53,0,53,53,24-10-22,24-10-22,08:24:47,Thu Nov 24 2022 08:24:47 GMT+0100 (Centraleuropæisk normaltid),The main experiment item,yes,0,0,/Users/ethan/Documents/GitHub/OpenSesame/Class1,0,0,0,no,mono,no,18,no,white,no,no,768,887,3.6.1,psycho,psycho,6,osweb,1.4.11,1,bveear,253,,0,a,f,a,a,a,832,2747,8546,832,2737,2,psycho,817,1440,24,900,24,0,25,1440,1669274760811,1024,2,48000,-16,experiment,1,odd,MacIntel,beaver,115345,30,30,30,87829,24,114228,115246,30,115395,116242,115296,8593,115395,ExPsyLing2022_Class1,53,37836,54,animal,yes,1024
98,98,703,703,black,no,block2,2,Mozilla,Netscape,"5.0 (Macintosh; Intel Mac OS X 10_15_7) AppleWebKit/605.1.15 (KHTML, like Gecko) Version/16.1 Safari/605.1.15",psycho,psycho,psycho,0,identical,uniform,1,1,f,54,0,0,0,54,0,0,54,54,0,54,54,0,54,0,54,54,24-10-22,24-10-22,08:24:47,Thu Nov 24 2022 08:24:47 GMT+0100 (Centraleuropæisk normaltid),The main experiment item,yes,0,0,/Users/ethan/Documents/GitHub/OpenSesame/Class1,0,0,0,no,mono,no,18,no,white,no,no,768,887,3.6.1,psycho,psycho,5,osweb,1.4.11,1,olive,253,,0,f,f,a,f,a,844,2747,8546,844,2737,2,psycho,817,1440,24,900,24,0,25,1440,1669274760811,1024,2,48000,-16,experiment,1,odd,MacIntel,olive,117377,30,30,30,87829,24,116260,117279,30,117428,118275,117329,8593,117428,ExPsyLing2022_Class1,54,38680,55,fruit_veg,yes,1024
98,98,704,704,black,no,block2,2,Mozilla,Netscape,"5.0 (Macintosh; Intel Mac OS X 10_15_7) AppleWebKit/605.1.15 (KHTML, like Gecko) Version/16.1 Safari/605.1.15",psycho,psycho,psycho,0,semi-scrambled,uniform,1,1,a,55,0,0,0,55,0,0,55,55,0,55,55,0,55,0,55,55,24-10-22,24-10-22,08:24:47,Thu Nov 24 2022 08:24:47 GMT+0100 (Centraleuropæisk normaltid),The main experiment item,yes,0,0,/Users/ethan/Documents/GitHub/OpenSesame/Class1,0,0,0,no,mono,no,18,no,white,no,no,768,887,3.6.1,psycho,psycho,4,osweb,1.4.11,1,loin,253,,0,a,f,a,a,a,725,2747,8546,725,2737,2,psycho,817,1440,24,900,24,0,25,1440,1669274760811,1024,2,48000,-16,experiment,1,odd,MacIntel,lion,119395,30,30,30,87829,24,118292,119313,30,119445,120176,119362,8593,119445,ExPsyLing2022_Class1,55,39405,56,animal,yes,1024
98,98,703,703,black,no,block2,2,Mozilla,Netscape,"5.0 (Macintosh; Intel Mac OS X 10_15_7) AppleWebKit/605.1.15 (KHTML, like Gecko) Version/16.1 Safari/605.1.15",psycho,psycho,psycho,0,identical,uniform,1,1,f,56,0,0,0,56,0,0,56,56,0,56,56,0,56,0,56,56,24-10-22,24-10-22,08:24:47,Thu Nov 24 2022 08:24:47 GMT+0100 (Centraleuropæisk normaltid),The main experiment item,yes,0,0,/Users/ethan/Documents/GitHub/OpenSesame/Class1,0,0,0,no,mono,no,18,no,white,no,no,768,887,3.6.1,psycho,psycho,7,osweb,1.4.11,1,rhubarb,253,,0,f,f,a,f,a,677,2747,8546,677,2737,2,psycho,817,1440,24,900,24,0,25,1440,1669274760811,1024,2,48000,-16,experiment,1,odd,MacIntel,rhubarb,121312,30,30,30,87829,24,120195,121213,30,121362,122043,121263,8593,121362,ExPsyLing2022_Class1,56,40082,57,fruit_veg,yes,1024
98,98,701,701,black,no,block2,2,Mozilla,Netscape,"5.0 (Macintosh; Intel Mac OS X 10_15_7) AppleWebKit/605.1.15 (KHTML, like Gecko) Version/16.1 Safari/605.1.15",psycho,psycho,psycho,0,identical,uniform,1,1,a,57,0,0,0,57,0,0,57,57,0,57,57,0,57,0,57,57,24-10-22,24-10-22,08:24:47,Thu Nov 24 2022 08:24:47 GMT+0100 (Centraleuropæisk normaltid),The main experiment item,yes,0,0,/Users/ethan/Documents/GitHub/OpenSesame/Class1,0,0,0,no,mono,no,18,no,white,no,no,768,887,3.6.1,psycho,psycho,8,osweb,1.4.11,1,elephant,253,,0,a,f,a,a,a,586,2747,8546,586,2737,2,psycho,817,1440,24,900,24,0,25,1440,1669274760811,1024,2,48000,-16,experiment,1,odd,MacIntel,elephant,123177,30,30,30,87829,24,122060,123080,30,123229,123826,123129,8593,123228,ExPsyLing2022_Class1,57,40668,58,animal,yes,1024
98,98,704,704,black,no,block2,2,Mozilla,Netscape,"5.0 (Macintosh; Intel Mac OS X 10_15_7) AppleWebKit/605.1.15 (KHTML, like Gecko) Version/16.1 Safari/605.1.15",psycho,psycho,psycho,0,semi-scrambled,uniform,1,1,f,58,0,0,0,58,0,0,58,58,0,58,58,0,58,0,58,58,24-10-22,24-10-22,08:24:47,Thu Nov 24 2022 08:24:47 GMT+0100 (Centraleuropæisk normaltid),The main experiment item,yes,0,0,/Users/ethan/Documents/GitHub/OpenSesame/Class1,0,0,0,no,mono,no,18,no,white,no,no,768,887,3.6.1,psycho,psycho,6,osweb,1.4.11,1,croart,253,,0,f,f,a,f,a,877,2747,8546,877,2737,2,psycho,817,1440,24,900,24,0,25,1440,1669274760811,1024,2,48000,-16,experiment,1,odd,MacIntel,carrot,124962,30,30,30,87829,24,123844,124863,30,125012,125892,124913,8593,125012,ExPsyLing2022_Class1,58,41545,59,fruit_veg,yes,1024
98,98,715,715,black,no,block2,2,Mozilla,Netscape,"5.0 (Macintosh; Intel Mac OS X 10_15_7) AppleWebKit/605.1.15 (KHTML, like Gecko) Version/16.1 Safari/605.1.15",psycho,psycho,psycho,0,semi-scrambled,uniform,1,1,a,59,0,0,0,59,0,0,59,59,0,59,59,0,59,0,59,59,24-10-22,24-10-22,08:24:47,Thu Nov 24 2022 08:24:47 GMT+0100 (Centraleuropæisk normaltid),The main experiment item,yes,0,0,/Users/ethan/Documents/GitHub/OpenSesame/Class1,0,0,0,no,mono,no,18,no,white,no,no,768,887,3.6.1,psycho,psycho,8,osweb,1.4.11,1,pylaputs,253,,0,a,f,a,a,a,1332,2747,8546,1332,2737,2,psycho,817,1440,24,900,24,0,25,1440,1669274760811,1024,2,48000,-16,experiment,1,odd,MacIntel,platypus,127012,30,30,30,87829,24,125909,126930,30,127062,128410,126979,8593,127062,ExPsyLing2022_Class1,59,42877,60,animal,yes,1024
98,98,715,715,black,no,block2,2,Mozilla,Netscape,"5.0 (Macintosh; Intel Mac OS X 10_15_7) AppleWebKit/605.1.15 (KHTML, like Gecko) Version/16.1 Safari/605.1.15",psycho,psycho,psycho,0,semi-scrambled,uniform,1,1,f,60,0,0,0,60,0,0,60,60,0,60,60,0,60,0,60,60,24-10-22,24-10-22,08:24:47,Thu Nov 24 2022 08:24:47 GMT+0100 (Centraleuropæisk normaltid),The main experiment item,yes,0,0,/Users/ethan/Documents/GitHub/OpenSesame/Class1,0,0,0,no,mono,no,18,no,white,no,no,768,887,3.6.1,psycho,psycho,6,osweb,1.4.11,1,susqah,253,,0,f,f,a,f,a,734,2747,8546,734,2737,2,psycho,817,1440,24,900,24,0,25,1440,1669274760811,1024,2,48000,-16,experiment,1,odd,MacIntel,squash,129545,30,30,30,87829,24,128429,129445,30,129595,130343,129497,8593,129595,ExPsyLing2022_Class1,60,43611,61,fruit_veg,yes,1024
98,98,713,713,black,no,block2,2,Mozilla,Netscape,"5.0 (Macintosh; Intel Mac OS X 10_15_7) AppleWebKit/605.1.15 (KHTML, like Gecko) Version/16.1 Safari/605.1.15",psycho,psycho,psycho,0,identical,uniform,1,1,f,61,0,0,0,61,0,0,61,61,0,61,61,0,61,0,61,61,24-10-22,24-10-22,08:24:47,Thu Nov 24 2022 08:24:47 GMT+0100 (Centraleuropæisk normaltid),The main experiment item,yes,0,0,/Users/ethan/Documents/GitHub/OpenSesame/Class1,0,0,0,no,mono,no,18,no,white,no,no,768,887,3.6.1,psycho,psycho,7,osweb,1.4.11,1,parsnip,253,,0,f,f,a,f,a,596,2747,8546,596,2737,2,psycho,817,1440,24,900,24,0,25,1440,1669274760811,1024,2,48000,-16,experiment,1,odd,MacIntel,parsnip,131462,30,30,30,87829,24,130361,131379,30,131511,132110,131429,8593,131511,ExPsyLing2022_Class1,61,44207,62,fruit_veg,yes,1024
98,98,711,711,black,no,block2,2,Mozilla,Netscape,"5.0 (Macintosh; Intel Mac OS X 10_15_7) AppleWebKit/605.1.15 (KHTML, like Gecko) Version/16.1 Safari/605.1.15",psycho,psycho,psycho,0,semi-scrambled,uniform,1,1,a,62,0,0,0,62,0,0,62,62,0,62,62,0,62,0,62,62,24-10-22,24-10-22,08:24:47,Thu Nov 24 2022 08:24:47 GMT+0100 (Centraleuropæisk normaltid),The main experiment item,yes,0,0,/Users/ethan/Documents/GitHub/OpenSesame/Class1,0,0,0,no,mono,no,18,no,white,no,no,768,887,3.6.1,psycho,psycho,7,osweb,1.4.11,1,dlhoipn,253,,0,a,f,a,a,a,607,2747,8546,607,2737,2,psycho,817,1440,24,900,24,0,25,1440,1669274760811,1024,2,48000,-16,experiment,1,odd,MacIntel,dolphin,133245,30,30,30,87829,24,132126,133147,30,133296,133910,133196,8593,133296,ExPsyLing2022_Class1,62,44814,63,animal,yes,1024
98,98,711,711,black,no,block2,2,Mozilla,Netscape,"5.0 (Macintosh; Intel Mac OS X 10_15_7) AppleWebKit/605.1.15 (KHTML, like Gecko) Version/16.1 Safari/605.1.15",psycho,psycho,psycho,0,fully-scrambled,uniform,1,1,a,63,0,0,0,63,0,0,63,63,0,63,63,0,63,0,63,63,24-10-22,24-10-22,08:24:47,Thu Nov 24 2022 08:24:47 GMT+0100 (Centraleuropæisk normaltid),The main experiment item,yes,0,0,/Users/ethan/Documents/GitHub/OpenSesame/Class1,0,0,0,no,mono,no,18,no,white,no,no,768,887,3.6.1,psycho,psycho,7,osweb,1.4.11,1,rgolial,253,,0,a,f,a,a,a,682,2747,8546,682,2737,2,psycho,817,1440,24,900,24,0,25,1440,1669274760811,1024,2,48000,-16,experiment,1,odd,MacIntel,gorilla,135028,30,30,30,87829,24,133929,134947,30,135078,135760,134995,8593,135078,ExPsyLing2022_Class1,63,45496,64,animal,yes,1024
98,98,709,709,black,no,block2,2,Mozilla,Netscape,"5.0 (Macintosh; Intel Mac OS X 10_15_7) AppleWebKit/605.1.15 (KHTML, like Gecko) Version/16.1 Safari/605.1.15",psycho,psycho,psycho,0,semi-scrambled,uniform,1,1,f,64,0,0,0,64,0,0,64,64,0,64,64,0,64,0,64,64,24-10-22,24-10-22,08:24:47,Thu Nov 24 2022 08:24:47 GMT+0100 (Centraleuropæisk normaltid),The main experiment item,yes,0,0,/Users/ethan/Documents/GitHub/OpenSesame/Class1,0,0,0,no,mono,no,18,no,white,no,no,768,887,3.6.1,psycho,psycho,7,osweb,1.4.11,1,ccunoot,253,,0,f,f,a,f,a,607,2747,8546,607,2737,2,psycho,817,1440,24,900,24,0,25,1440,1669274760811,1024,2,48000,-16,experiment,1,odd,MacIntel,coconut,136879,30,30,30,87829,24,135779,136796,30,136929,137543,136846,8593,136929,ExPsyLing2022_Class1,64,46103,65,fruit_veg,yes,1024
98,98,713,713,black,no,block2,2,Mozilla,Netscape,"5.0 (Macintosh; Intel Mac OS X 10_15_7) AppleWebKit/605.1.15 (KHTML, like Gecko) Version/16.1 Safari/605.1.15",psycho,psycho,psycho,0,identical,uniform,1,1,f,65,0,0,0,65,0,0,65,65,0,65,65,0,65,0,65,65,24-10-22,24-10-22,08:24:47,Thu Nov 24 2022 08:24:47 GMT+0100 (Centraleuropæisk normaltid),The main experiment item,yes,0,0,/Users/ethan/Documents/GitHub/OpenSesame/Class1,0,0,0,no,mono,no,18,no,white,no,no,768,887,3.6.1,psycho,psycho,6,osweb,1.4.11,1,citrus,253,,0,f,f,a,f,a,968,2747,8546,968,2737,2,psycho,817,1440,24,900,24,0,25,1440,1669274760811,1024,2,48000,-16,experiment,1,odd,MacIntel,citrus,138662,30,30,30,87829,24,137561,138580,30,138712,139693,138629,8593,138712,ExPsyLing2022_Class1,65,47071,66,fruit_veg,yes,1024
99,99,710,710,black,no,block2,2,Mozilla,Netscape,"5.0 (Macintosh; Intel Mac OS X 10_15_7) AppleWebKit/605.1.15 (KHTML, like Gecko) Version/16.1 Safari/605.1.15",psycho,psycho,psycho,0,semi-scrambled,uniform,1,1,f,66,0,0,0,66,0,0,66,66,0,66,66,0,66,0,66,66,24-10-22,24-10-22,08:24:47,Thu Nov 24 2022 08:24:47 GMT+0100 (Centraleuropæisk normaltid),The main experiment item,yes,0,0,/Users/ethan/Documents/GitHub/OpenSesame/Class1,0,0,0,no,mono,no,18,no,white,no,no,768,887,3.6.1,psycho,psycho,7,osweb,1.4.11,1,piukpmn,253,,0,f,f,a,f,a,527,2747,8546,527,2737,2,psycho,817,1440,24,900,24,0,25,1440,1669274760811,1024,2,48000,-16,experiment,1,odd,MacIntel,pumpkin,140812,30,30,30,87829,24,139713,140730,30,140862,141393,140779,8593,140862,ExPsyLing2022_Class1,66,47598,67,fruit_veg,yes,1024
99,99,708,708,black,no,block2,2,Mozilla,Netscape,"5.0 (Macintosh; Intel Mac OS X 10_15_7) AppleWebKit/605.1.15 (KHTML, like Gecko) Version/16.1 Safari/605.1.15",psycho,psycho,psycho,0,semi-scrambled,uniform,1,1,f,67,0,0,0,67,0,0,67,67,0,67,67,0,67,0,67,67,24-10-22,24-10-22,08:24:47,Thu Nov 24 2022 08:24:47 GMT+0100 (Centraleuropæisk normaltid),The main experiment item,yes,0,0,/Users/ethan/Documents/GitHub/OpenSesame/Class1,0,0,0,no,mono,no,18,no,white,no,no,768,887,3.6.1,psycho,psycho,7,osweb,1.4.11,1,piukpmn,253,,0,f,f,a,f,a,575,2747,8546,575,2737,2,psycho,817,1440,24,900,24,0,25,1440,1669274760811,1024,2,48000,-16,experiment,1,odd,MacIntel,pumpkin,142529,30,30,30,87829,24,141412,142430,30,142579,143160,142480,8593,142579,ExPsyLing2022_Class1,67,48173,68,fruit_veg,yes,1024
99,99,707,707,black,no,block2,2,Mozilla,Netscape,"5.0 (Macintosh; Intel Mac OS X 10_15_7) AppleWebKit/605.1.15 (KHTML, like Gecko) Version/16.1 Safari/605.1.15",psycho,psycho,psycho,0,identical,uniform,1,1,a,68,0,0,0,68,0,0,68,68,0,68,68,0,68,0,68,68,24-10-22,24-10-22,08:24:47,Thu Nov 24 2022 08:24:47 GMT+0100 (Centraleuropæisk normaltid),The main experiment item,yes,0,0,/Users/ethan/Documents/GitHub/OpenSesame/Class1,0,0,0,no,mono,no,18,no,white,no,no,768,887,3.6.1,psycho,psycho,8,osweb,1.4.11,1,seahorse,253,,0,a,f,a,a,a,638,2747,8546,638,2737,2,psycho,817,1440,24,900,24,0,25,1440,1669274760811,1024,2,48000,-16,experiment,1,odd,MacIntel,seahorse,144297,30,30,30,87829,24,143178,144196,30,144346,144993,144247,8593,144346,ExPsyLing2022_Class1,68,48811,69,animal,yes,1024
99,99,705,705,black,no,block2,2,Mozilla,Netscape,"5.0 (Macintosh; Intel Mac OS X 10_15_7) AppleWebKit/605.1.15 (KHTML, like Gecko) Version/16.1 Safari/605.1.15",psycho,psycho,psycho,0,identical,uniform,1,1,f,69,0,0,0,69,0,0,69,69,0,69,69,0,69,0,69,69,24-10-22,24-10-22,08:24:47,Thu Nov 24 2022 08:24:47 GMT+0100 (Centraleuropæisk normaltid),The main experiment item,yes,0,0,/Users/ethan/Documents/GitHub/OpenSesame/Class1,0,0,0,no,mono,no,18,no,white,no,no,768,887,3.6.1,psycho,psycho,4,osweb,1.4.11,1,pear,253,,0,f,f,a,f,a,554,2747,8546,554,2737,2,psycho,817,1440,24,900,24,0,25,1440,1669274760811,1024,2,48000,-16,experiment,1,odd,MacIntel,pear,146130,30,30,30,87829,24,145012,146031,30,146179,146744,146080,8593,146179,ExPsyLing2022_Class1,69,49365,70,fruit_veg,yes,1024
99,99,705,705,black,no,block2,2,Mozilla,Netscape,"5.0 (Macintosh; Intel Mac OS X 10_15_7) AppleWebKit/605.1.15 (KHTML, like Gecko) Version/16.1 Safari/605.1.15",psycho,psycho,psycho,0,identical,uniform,1,1,a,70,0,0,0,70,0,0,70,70,0,70,70,0,70,0,70,70,24-10-22,24-10-22,08:24:47,Thu Nov 24 2022 08:24:47 GMT+0100 (Centraleuropæisk normaltid),The main experiment item,yes,0,0,/Users/ethan/Documents/GitHub/OpenSesame/Class1,0,0,0,no,mono,no,18,no,white,no,no,768,887,3.6.1,psycho,psycho,5,osweb,1.4.11,1,panda,253,,0,a,f,a,a,a,691,2747,8546,691,2737,2,psycho,817,1440,24,900,24,0,25,1440,1669274760811,1024,2,48000,-16,experiment,1,odd,MacIntel,panda,147880,30,30,30,87829,24,146762,147780,30,147930,148627,147830,8593,147930,ExPsyLing2022_Class1,70,50056,71,animal,yes,1024
99,99,705,705,black,no,block2,2,Mozilla,Netscape,"5.0 (Macintosh; Intel Mac OS X 10_15_7) AppleWebKit/605.1.15 (KHTML, like Gecko) Version/16.1 Safari/605.1.15",psycho,psycho,psycho,0,fully-scrambled,uniform,1,1,f,71,0,0,0,71,0,0,71,71,0,71,71,0,71,0,71,71,24-10-22,24-10-22,08:24:47,Thu Nov 24 2022 08:24:47 GMT+0100 (Centraleuropæisk normaltid),The main experiment item,yes,0,0,/Users/ethan/Documents/GitHub/OpenSesame/Class1,0,0,0,no,mono,no,18,no,white,no,no,768,887,3.6.1,psycho,psycho,5,osweb,1.4.11,1,gmoan,253,,0,f,f,a,f,a,675,2747,8546,675,2737,2,psycho,817,1440,24,900,24,0,25,1440,1669274760811,1024,2,48000,-16,experiment,1,odd,MacIntel,mango,149747,30,30,30,87829,24,148644,149663,30,149796,150476,149713,8593,149796,ExPsyLing2022_Class1,71,50731,72,fruit_veg,yes,1024
99,99,707,707,black,no,block2,2,Mozilla,Netscape,"5.0 (Macintosh; Intel Mac OS X 10_15_7) AppleWebKit/605.1.15 (KHTML, like Gecko) Version/16.1 Safari/605.1.15",psycho,psycho,psycho,0,fully-scrambled,uniform,1,1,f,72,0,0,0,72,0,0,72,72,0,72,72,0,72,0,72,72,24-10-22,24-10-22,08:24:47,Thu Nov 24 2022 08:24:47 GMT+0100 (Centraleuropæisk normaltid),The main experiment item,yes,0,0,/Users/ethan/Documents/GitHub/OpenSesame/Class1,0,0,0,no,mono,no,18,no,white,no,no,768,887,3.6.1,psycho,psycho,4,osweb,1.4.11,1,ronc,253,,0,f,f,a,f,a,895,2747,8546,895,2737,2,psycho,817,1440,24,900,24,0,25,1440,1669274760811,1024,2,48000,-16,experiment,1,odd,MacIntel,corn,151613,30,30,30,87829,24,150494,151514,30,151663,152561,151564,8593,151663,ExPsyLing2022_Class1,72,51626,73,fruit_veg,yes,1024
99,99,708,708,black,no,block2,2,Mozilla,Netscape,"5.0 (Macintosh; Intel Mac OS X 10_15_7) AppleWebKit/605.1.15 (KHTML, like Gecko) Version/16.1 Safari/605.1.15",psycho,psycho,psycho,0,identical,uniform,1,1,a,73,0,0,0,73,0,0,73,73,0,73,73,0,73,0,73,73,24-10-22,24-10-22,08:24:47,Thu Nov 24 2022 08:24:47 GMT+0100 (Centraleuropæisk normaltid),The main experiment item,yes,0,0,/Users/ethan/Documents/GitHub/OpenSesame/Class1,0,0,0,no,mono,no,18,no,white,no,no,768,887,3.6.1,psycho,psycho,6,osweb,1.4.11,1,wombat,253,,0,a,f,a,a,a,745,2747,8546,745,2737,2,psycho,817,1440,24,900,24,0,25,1440,1669274760811,1024,2,48000,-16,experiment,1,odd,MacIntel,wombat,153696,30,30,30,87829,24,152578,153597,30,153746,154494,153647,8593,153746,ExPsyLing2022_Class1,73,52371,74,animal,yes,1024
99,99,706,706,black,no,block2,2,Mozilla,Netscape,"5.0 (Macintosh; Intel Mac OS X 10_15_7) AppleWebKit/605.1.15 (KHTML, like Gecko) Version/16.1 Safari/605.1.15",psycho,psycho,psycho,0,fully-scrambled,uniform,1,1,a,74,0,0,0,74,0,0,74,74,0,74,74,0,74,0,74,74,24-10-22,24-10-22,08:24:47,Thu Nov 24 2022 08:24:47 GMT+0100 (Centraleuropæisk normaltid),The main experiment item,yes,0,0,/Users/ethan/Documents/GitHub/OpenSesame/Class1,0,0,0,no,mono,no,18,no,white,no,no,768,887,3.6.1,psycho,psycho,7,osweb,1.4.11,1,louaffb,253,,0,a,f,a,a,a,615,2747,8546,615,2737,2,psycho,817,1440,24,900,24,0,25,1440,1669274760811,1024,2,48000,-16,experiment,1,odd,MacIntel,buffalo,155614,30,30,30,87829,24,154510,155514,30,155663,156294,155564,8593,155663,ExPsyLing2022_Class1,74,52986,75,animal,yes,1024
99,99,710,710,black,no,block2,2,Mozilla,Netscape,"5.0 (Macintosh; Intel Mac OS X 10_15_7) AppleWebKit/605.1.15 (KHTML, like Gecko) Version/16.1 Safari/605.1.15",psycho,psycho,psycho,0,fully-scrambled,uniform,1,1,f,75,0,0,0,75,0,0,75,75,0,75,75,0,75,0,75,75,24-10-22,24-10-22,08:24:47,Thu Nov 24 2022 08:24:47 GMT+0100 (Centraleuropæisk normaltid),The main experiment item,yes,0,0,/Users/ethan/Documents/GitHub/OpenSesame/Class1,0,0,0,no,mono,no,18,no,white,no,no,768,887,3.6.1,psycho,psycho,5,osweb,1.4.11,1,alagi,253,,0,f,f,a,f,a,986,2747,8546,986,2737,2,psycho,817,1440,24,900,24,0,25,1440,1669274760811,1024,2,48000,-16,experiment,1,odd,MacIntel,galia,157430,30,30,30,87829,24,156313,157332,30,157480,158477,157381,8593,157480,ExPsyLing2022_Class1,75,53972,76,fruit_veg,yes,1024
99,99,710,710,black,no,block2,2,Mozilla,Netscape,"5.0 (Macintosh; Intel Mac OS X 10_15_7) AppleWebKit/605.1.15 (KHTML, like Gecko) Version/16.1 Safari/605.1.15",psycho,psycho,psycho,0,fully-scrambled,uniform,1,1,f,76,0,0,0,76,0,0,76,76,0,76,76,0,76,0,76,76,24-10-22,24-10-22,08:24:47,Thu Nov 24 2022 08:24:47 GMT+0100 (Centraleuropæisk normaltid),The main experiment item,yes,0,0,/Users/ethan/Documents/GitHub/OpenSesame/Class1,0,0,0,no,mono,no,18,no,white,no,no,768,887,3.6.1,psycho,psycho,5,osweb,1.4.11,1,cpeha,253,,0,f,f,a,f,a,673,2747,8546,673,2737,2,psycho,817,1440,24,900,24,0,25,1440,1669274760811,1024,2,48000,-16,experiment,1,odd,MacIntel,peach,159614,30,30,30,87829,24,158497,159514,30,159663,160344,159564,8593,159663,ExPsyLing2022_Class1,76,54645,77,fruit_veg,yes,1024
99,99,711,711,black,no,block2,2,Mozilla,Netscape,"5.0 (Macintosh; Intel Mac OS X 10_15_7) AppleWebKit/605.1.15 (KHTML, like Gecko) Version/16.1 Safari/605.1.15",psycho,psycho,psycho,0,fully-scrambled,uniform,1,1,f,77,0,0,0,77,0,0,77,77,0,77,77,0,77,0,77,77,24-10-22,24-10-22,08:24:47,Thu Nov 24 2022 08:24:47 GMT+0100 (Centraleuropæisk normaltid),The main experiment item,yes,0,0,/Users/ethan/Documents/GitHub/OpenSesame/Class1,0,0,0,no,mono,no,18,no,white,no,no,768,887,3.6.1,psycho,psycho,8,osweb,1.4.11,1,ekahiccp,253,,0,f,f,a,f,a,800,2747,8546,800,2737,2,psycho,817,1440,24,900,24,0,25,1440,1669274760811,1024,2,48000,-16,experiment,1,odd,MacIntel,chickpea,161480,30,30,30,87829,24,160363,161381,30,161530,162344,161434,8593,161530,ExPsyLing2022_Class1,77,55445,78,fruit_veg,yes,1024
99,99,710,710,black,no,block2,2,Mozilla,Netscape,"5.0 (Macintosh; Intel Mac OS X 10_15_7) AppleWebKit/605.1.15 (KHTML, like Gecko) Version/16.1 Safari/605.1.15",psycho,psycho,psycho,0,fully-scrambled,uniform,1,1,a,78,0,0,0,78,0,0,78,78,0,78,78,0,78,0,78,78,24-10-22,24-10-22,08:24:47,Thu Nov 24 2022 08:24:47 GMT+0100 (Centraleuropæisk normaltid),The main experiment item,yes,0,0,/Users/ethan/Documents/GitHub/OpenSesame/Class1,0,0,0,no,mono,no,18,no,white,no,no,768,887,3.6.1,psycho,psycho,8,osweb,1.4.11,1,stotoeir,253,,0,a,f,a,a,a,627,2747,8546,627,2737,2,psycho,817,1440,24,900,24,0,25,1440,1669274760811,1024,2,48000,-16,experiment,1,odd,MacIntel,tortoise,163480,30,30,30,87829,24,162363,163381,30,163530,164161,163431,8593,163530,ExPsyLing2022_Class1,78,56072,79,animal,yes,1024
98,98,709,709,black,no,block2,2,Mozilla,Netscape,"5.0 (Macintosh; Intel Mac OS X 10_15_7) AppleWebKit/605.1.15 (KHTML, like Gecko) Version/16.1 Safari/605.1.15",psycho,psycho,psycho,0,identical,uniform,0,0,a,79,0,0,0,79,0,0,79,79,0,79,79,0,79,0,79,79,24-10-22,24-10-22,08:24:47,Thu Nov 24 2022 08:24:47 GMT+0100 (Centraleuropæisk normaltid),The main experiment item,yes,0,0,/Users/ethan/Documents/GitHub/OpenSesame/Class1,0,0,0,no,mono,no,18,no,white,no,no,768,887,3.6.1,psycho,psycho,4,osweb,1.4.11,1,puma,253,,0,f,f,a,f,a,666,2747,8546,666,2737,2,psycho,817,1440,24,900,24,0,25,1440,1669274760811,1024,2,48000,-16,experiment,1,odd,MacIntel,puma,165280,30,30,30,87829,24,164180,165198,30,165330,166011,165247,8593,165330,ExPsyLing2022_Class1,78,56738,80,animal,yes,1024
98,98,710,710,black,no,block2,2,Mozilla,Netscape,"5.0 (Macintosh; Intel Mac OS X 10_15_7) AppleWebKit/605.1.15 (KHTML, like Gecko) Version/16.1 Safari/605.1.15",psycho,psycho,psycho,0,identical,uniform,1,1,f,80,0,0,0,80,0,0,80,80,0,80,80,0,80,0,80,80,24-10-22,24-10-22,08:24:47,Thu Nov 24 2022 08:24:47 GMT+0100 (Centraleuropæisk normaltid),The main experiment item,yes,0,0,/Users/ethan/Documents/GitHub/OpenSesame/Class1,0,0,0,no,mono,no,18,no,white,no,no,768,887,3.6.1,psycho,psycho,4,osweb,1.4.11,1,kale,253,,0,f,f,a,f,a,753,2747,8546,753,2737,2,psycho,817,1440,24,900,24,0,25,1440,1669274760811,1024,2,48000,-16,experiment,1,odd,MacIntel,kale,167146,30,30,30,87829,24,166030,167047,30,167197,167961,167098,8593,167197,ExPsyLing2022_Class1,79,57491,81,fruit_veg,yes,1024
98,98,710,710,black,no,block2,2,Mozilla,Netscape,"5.0 (Macintosh; Intel Mac OS X 10_15_7) AppleWebKit/605.1.15 (KHTML, like Gecko) Version/16.1 Safari/605.1.15",psycho,psycho,psycho,0,identical,uniform,1,1,f,81,0,0,0,81,0,0,81,81,0,81,81,0,81,0,81,81,24-10-22,24-10-22,08:24:47,Thu Nov 24 2022 08:24:47 GMT+0100 (Centraleuropæisk normaltid),The main experiment item,yes,0,0,/Users/ethan/Documents/GitHub/OpenSesame/Class1,0,0,0,no,mono,no,18,no,white,no,no,768,887,3.6.1,psycho,psycho,4,osweb,1.4.11,1,kale,253,,0,f,f,a,f,a,693,2747,8546,693,2737,2,psycho,817,1440,24,900,24,0,25,1440,1669274760811,1024,2,48000,-16,experiment,1,odd,MacIntel,kale,169080,30,30,30,87829,24,167980,168998,30,169130,169827,169047,8593,169130,ExPsyLing2022_Class1,80,58184,82,fruit_veg,yes,1024
100,100,1843,1843,black,no,block3,3,Mozilla,Netscape,"5.0 (Macintosh; Intel Mac OS X 10_15_7) AppleWebKit/605.1.15 (KHTML, like Gecko) Version/15.6.1 Safari/605.1.15",psycho,psycho,psycho,0,semi-scrambled,uniform,1,1,f,0,0,0,0,0,0,0,0,0,0,0,0,0,0,0,0,0,24-10-22,24-10-22,08:24:03,Thu Nov 24 2022 08:24:03 GMT+0100 (CET),The main experiment item,yes,0,0,/Users/ethan/Documents/GitHub/OpenSesame/Class1,0,0,0,no,mono,no,18,no,white,no,no,768,885,3.6.1,psycho,psycho,7,osweb,1.4.11,1,snpicah,253,,0,f,,space,f,space,1843,,12632,1843,3782,2,psycho,823,1440,24,900,24,0,25,1440,1669274727031,1024,2,48000,-16,experiment,1,odd,MacIntel,spinach,17667,49,49,49,,30,16555,17565,49,17715,19563,17617,12702,17714,ExPsyLing2022_Class1,1,1843,1,fruit_veg,yes,1024
100,100,1384,1384,black,no,block3,3,Mozilla,Netscape,"5.0 (Macintosh; Intel Mac OS X 10_15_7) AppleWebKit/605.1.15 (KHTML, like Gecko) Version/15.6.1 Safari/605.1.15",psycho,psycho,psycho,0,identical,uniform,1,1,a,1,0,0,0,1,0,0,1,1,0,1,1,0,1,0,1,1,24-10-22,24-10-22,08:24:03,Thu Nov 24 2022 08:24:03 GMT+0100 (CET),The main experiment item,yes,0,0,/Users/ethan/Documents/GitHub/OpenSesame/Class1,0,0,0,no,mono,no,18,no,white,no,no,768,885,3.6.1,psycho,psycho,5,osweb,1.4.11,1,koala,253,,0,a,,space,a,space,925,,12632,925,3782,2,psycho,823,1440,24,900,24,0,25,1440,1669274727031,1024,2,48000,-16,experiment,1,odd,MacIntel,koala,20716,49,49,49,,30,19607,20617,49,20765,21696,20667,12702,20765,ExPsyLing2022_Class1,2,2768,2,animal,yes,1024
100,100,1223,1223,black,no,block3,3,Mozilla,Netscape,"5.0 (Macintosh; Intel Mac OS X 10_15_7) AppleWebKit/605.1.15 (KHTML, like Gecko) Version/15.6.1 Safari/605.1.15",psycho,psycho,psycho,0,identical,uniform,1,1,a,2,0,0,0,2,0,0,2,2,0,2,2,0,2,0,2,2,24-10-22,24-10-22,08:24:03,Thu Nov 24 2022 08:24:03 GMT+0100 (CET),The main experiment item,yes,0,0,/Users/ethan/Documents/GitHub/OpenSesame/Class1,0,0,0,no,mono,no,18,no,white,no,no,768,885,3.6.1,psycho,psycho,6,osweb,1.4.11,1,walrus,253,,0,a,,space,a,space,900,,12632,900,3782,2,psycho,823,1440,24,900,24,0,25,1440,1669274727031,1024,2,48000,-16,experiment,1,odd,MacIntel,walrus,22849,49,49,49,,30,21730,22751,49,22899,23799,22799,12702,22899,ExPsyLing2022_Class1,3,3668,3,animal,yes,1024
100,100,1138,1138,black,no,block3,3,Mozilla,Netscape,"5.0 (Macintosh; Intel Mac OS X 10_15_7) AppleWebKit/605.1.15 (KHTML, like Gecko) Version/15.6.1 Safari/605.1.15",psycho,psycho,psycho,0,fully-scrambled,uniform,1,1,a,3,0,0,0,3,0,0,3,3,0,3,3,0,3,0,3,3,24-10-22,24-10-22,08:24:03,Thu Nov 24 2022 08:24:03 GMT+0100 (CET),The main experiment item,yes,0,0,/Users/ethan/Documents/GitHub/OpenSesame/Class1,0,0,0,no,mono,no,18,no,white,no,no,768,885,3.6.1,psycho,psycho,7,osweb,1.4.11,1,nieugnp,253,,0,a,,space,a,space,884,,12632,884,3782,2,psycho,823,1440,24,900,24,0,25,1440,1669274727031,1024,2,48000,-16,experiment,1,odd,MacIntel,penguin,24933,49,49,49,,30,23842,24849,49,24984,25880,24899,12702,24984,ExPsyLing2022_Class1,4,4552,4,animal,yes,1024
80,80,1159,1159,black,no,block3,3,Mozilla,Netscape,"5.0 (Macintosh; Intel Mac OS X 10_15_7) AppleWebKit/605.1.15 (KHTML, like Gecko) Version/15.6.1 Safari/605.1.15",psycho,psycho,psycho,0,fully-scrambled,uniform,0,0,a,4,0,0,0,4,0,0,4,4,0,4,4,0,4,0,4,4,24-10-22,24-10-22,08:24:03,Thu Nov 24 2022 08:24:03 GMT+0100 (CET),The main experiment item,yes,0,0,/Users/ethan/Documents/GitHub/OpenSesame/Class1,0,0,0,no,mono,no,18,no,white,no,no,768,885,3.6.1,psycho,psycho,4,osweb,1.4.11,1,lcfa,253,,0,f,,space,f,space,1245,,12632,1245,3782,2,psycho,823,1440,24,900,24,0,25,1440,1669274727031,1024,2,48000,-16,experiment,1,odd,MacIntel,calf,26998,49,49,49,,30,25907,26916,49,27048,28296,26965,12702,27048,ExPsyLing2022_Class1,4,5797,5,animal,yes,1024
83,83,1346,1346,black,no,block3,3,Mozilla,Netscape,"5.0 (Macintosh; Intel Mac OS X 10_15_7) AppleWebKit/605.1.15 (KHTML, like Gecko) Version/15.6.1 Safari/605.1.15",psycho,psycho,psycho,0,identical,uniform,1,1,f,5,0,0,0,5,0,0,5,5,0,5,5,0,5,0,5,5,24-10-22,24-10-22,08:24:03,Thu Nov 24 2022 08:24:03 GMT+0100 (CET),The main experiment item,yes,0,0,/Users/ethan/Documents/GitHub/OpenSesame/Class1,0,0,0,no,mono,no,18,no,white,no,no,768,885,3.6.1,psycho,psycho,4,osweb,1.4.11,1,pome,253,,0,f,,space,f,space,2279,,12632,2279,3782,2,psycho,823,1440,24,900,24,0,25,1440,1669274727031,1024,2,48000,-16,experiment,1,odd,MacIntel,pome,29433,49,49,49,,30,28339,29348,49,29482,31766,29398,12702,29482,ExPsyLing2022_Class1,5,8076,6,fruit_veg,yes,1024
86,86,1483,1483,black,no,block3,3,Mozilla,Netscape,"5.0 (Macintosh; Intel Mac OS X 10_15_7) AppleWebKit/605.1.15 (KHTML, like Gecko) Version/15.6.1 Safari/605.1.15",psycho,psycho,psycho,0,fully-scrambled,uniform,1,1,f,6,0,0,0,6,0,0,6,6,0,6,6,0,6,0,6,6,24-10-22,24-10-22,08:24:03,Thu Nov 24 2022 08:24:03 GMT+0100 (CET),The main experiment item,yes,0,0,/Users/ethan/Documents/GitHub/OpenSesame/Class1,0,0,0,no,mono,no,18,no,white,no,no,768,885,3.6.1,psycho,psycho,8,osweb,1.4.11,1,toroetbe,253,,0,f,,space,f,space,2302,,12632,2302,3782,2,psycho,823,1440,24,900,24,0,25,1440,1669274727031,1024,2,48000,-16,experiment,1,odd,MacIntel,beetroot,32899,49,49,49,,30,31800,32815,49,32950,35265,32865,12702,32949,ExPsyLing2022_Class1,6,10378,7,fruit_veg,yes,1024
88,88,1394,1394,black,no,block3,3,Mozilla,Netscape,"5.0 (Macintosh; Intel Mac OS X 10_15_7) AppleWebKit/605.1.15 (KHTML, like Gecko) Version/15.6.1 Safari/605.1.15",psycho,psycho,psycho,0,identical,uniform,1,1,f,7,0,0,0,7,0,0,7,7,0,7,7,0,7,0,7,7,24-10-22,24-10-22,08:24:03,Thu Nov 24 2022 08:24:03 GMT+0100 (CET),The main experiment item,yes,0,0,/Users/ethan/Documents/GitHub/OpenSesame/Class1,0,0,0,no,mono,no,18,no,white,no,no,768,885,3.6.1,psycho,psycho,8,osweb,1.4.11,1,zucchini,253,,0,f,,space,f,space,770,,12632,770,3782,2,psycho,823,1440,24,900,24,0,25,1440,1669274727031,1024,2,48000,-16,experiment,1,odd,MacIntel,zucchini,36383,49,49,49,,30,35289,36301,49,36434,37213,36350,12702,36433,ExPsyLing2022_Class1,7,11148,8,fruit_veg,yes,1024
89,89,1316,1316,black,no,block3,3,Mozilla,Netscape,"5.0 (Macintosh; Intel Mac OS X 10_15_7) AppleWebKit/605.1.15 (KHTML, like Gecko) Version/15.6.1 Safari/605.1.15",psycho,psycho,psycho,0,semi-scrambled,uniform,1,1,a,8,0,0,0,8,0,0,8,8,0,8,8,0,8,0,8,8,24-10-22,24-10-22,08:24:03,Thu Nov 24 2022 08:24:03 GMT+0100 (CET),The main experiment item,yes,0,0,/Users/ethan/Documents/GitHub/OpenSesame/Class1,0,0,0,no,mono,no,18,no,white,no,no,768,885,3.6.1,psycho,psycho,8,osweb,1.4.11,1,knroaogo,253,,0,a,,space,a,space,695,,12632,695,3782,2,psycho,823,1440,24,900,24,0,25,1440,1669274727031,1024,2,48000,-16,experiment,1,odd,MacIntel,kangoroo,38349,49,49,49,,30,37240,38251,49,38400,39097,38302,12702,38400,ExPsyLing2022_Class1,8,11843,9,animal,yes,1024
90,90,1319,1319,black,no,block3,3,Mozilla,Netscape,"5.0 (Macintosh; Intel Mac OS X 10_15_7) AppleWebKit/605.1.15 (KHTML, like Gecko) Version/15.6.1 Safari/605.1.15",psycho,psycho,psycho,0,semi-scrambled,uniform,1,1,f,9,0,0,0,9,0,0,9,9,0,9,9,0,9,0,9,9,24-10-22,24-10-22,08:24:03,Thu Nov 24 2022 08:24:03 GMT+0100 (CET),The main experiment item,yes,0,0,/Users/ethan/Documents/GitHub/OpenSesame/Class1,0,0,0,no,mono,no,18,no,white,no,no,768,885,3.6.1,psycho,psycho,5,osweb,1.4.11,1,paceh,253,,0,f,,space,f,space,1343,,12632,1343,3782,2,psycho,823,1440,24,900,24,0,25,1440,1669274727031,1024,2,48000,-16,experiment,1,odd,MacIntel,peach,40235,49,49,49,,30,39134,40150,49,40284,41635,40200,12702,40284,ExPsyLing2022_Class1,9,13186,10,fruit_veg,yes,1024
91,91,1273,1273,black,no,block3,3,Mozilla,Netscape,"5.0 (Macintosh; Intel Mac OS X 10_15_7) AppleWebKit/605.1.15 (KHTML, like Gecko) Version/15.6.1 Safari/605.1.15",psycho,psycho,psycho,0,semi-scrambled,uniform,1,1,a,10,0,0,0,10,0,0,10,10,0,10,10,0,10,0,10,10,24-10-22,24-10-22,08:24:03,Thu Nov 24 2022 08:24:03 GMT+0100 (CET),The main experiment item,yes,0,0,/Users/ethan/Documents/GitHub/OpenSesame/Class1,0,0,0,no,mono,no,18,no,white,no,no,768,885,3.6.1,psycho,psycho,4,osweb,1.4.11,1,mnik,253,,0,a,,space,a,space,816,,12632,816,3782,2,psycho,823,1440,24,900,24,0,25,1440,1669274727031,1024,2,48000,-16,experiment,1,odd,MacIntel,mink,42767,49,49,49,,30,41669,42684,49,42817,43647,42733,12702,42817,ExPsyLing2022_Class1,10,14002,11,animal,yes,1024
92,92,1356,1356,black,no,block3,3,Mozilla,Netscape,"5.0 (Macintosh; Intel Mac OS X 10_15_7) AppleWebKit/605.1.15 (KHTML, like Gecko) Version/15.6.1 Safari/605.1.15",psycho,psycho,psycho,0,semi-scrambled,uniform,1,1,f,11,0,0,0,11,0,0,11,11,0,11,11,0,11,0,11,11,24-10-22,24-10-22,08:24:03,Thu Nov 24 2022 08:24:03 GMT+0100 (CET),The main experiment item,yes,0,0,/Users/ethan/Documents/GitHub/OpenSesame/Class1,0,0,0,no,mono,no,18,no,white,no,no,768,885,3.6.1,psycho,psycho,8,osweb,1.4.11,1,cekicaph,253,,0,f,,space,f,space,2268,,12632,2268,3782,2,psycho,823,1440,24,900,24,0,25,1440,1669274727031,1024,2,48000,-16,experiment,1,odd,MacIntel,chickpea,44784,49,49,49,,30,43667,44684,49,44834,47116,44734,12702,44834,ExPsyLing2022_Class1,11,16270,12,fruit_veg,yes,1024
85,85,1401,1401,black,no,block3,3,Mozilla,Netscape,"5.0 (Macintosh; Intel Mac OS X 10_15_7) AppleWebKit/605.1.15 (KHTML, like Gecko) Version/15.6.1 Safari/605.1.15",psycho,psycho,psycho,0,identical,uniform,0,0,a,12,0,0,0,12,0,0,12,12,0,12,12,0,12,0,12,12,24-10-22,24-10-22,08:24:03,Thu Nov 24 2022 08:24:03 GMT+0100 (CET),The main experiment item,yes,0,0,/Users/ethan/Documents/GitHub/OpenSesame/Class1,0,0,0,no,mono,no,18,no,white,no,no,768,885,3.6.1,psycho,psycho,8,osweb,1.4.11,1,platypus,253,,0,f,,space,f,space,1948,,12632,1948,3782,2,psycho,823,1440,24,900,24,0,25,1440,1669274727031,1024,2,48000,-16,experiment,1,odd,MacIntel,platypus,48251,49,49,49,,30,47143,48151,49,48301,50265,48201,12702,48301,ExPsyLing2022_Class1,11,18218,13,animal,yes,1024
86,86,1352,1352,black,no,block3,3,Mozilla,Netscape,"5.0 (Macintosh; Intel Mac OS X 10_15_7) AppleWebKit/605.1.15 (KHTML, like Gecko) Version/15.6.1 Safari/605.1.15",psycho,psycho,psycho,0,fully-scrambled,uniform,1,1,f,13,0,0,0,13,0,0,13,13,0,13,13,0,13,0,13,13,24-10-22,24-10-22,08:24:03,Thu Nov 24 2022 08:24:03 GMT+0100 (CET),The main experiment item,yes,0,0,/Users/ethan/Documents/GitHub/OpenSesame/Class1,0,0,0,no,mono,no,18,no,white,no,no,768,885,3.6.1,psycho,psycho,6,osweb,1.4.11,1,toatop,253,,0,f,,space,f,space,709,,12632,709,3782,2,psycho,823,1440,24,900,24,0,25,1440,1669274727031,1024,2,48000,-16,experiment,1,odd,MacIntel,potato,51384,49,49,49,,30,50287,51301,49,51434,52147,51351,12702,51434,ExPsyLing2022_Class1,12,18927,14,fruit_veg,yes,1024
87,87,1323,1323,black,no,block3,3,Mozilla,Netscape,"5.0 (Macintosh; Intel Mac OS X 10_15_7) AppleWebKit/605.1.15 (KHTML, like Gecko) Version/15.6.1 Safari/605.1.15",psycho,psycho,psycho,0,semi-scrambled,uniform,1,1,a,14,0,0,0,14,0,0,14,14,0,14,14,0,14,0,14,14,24-10-22,24-10-22,08:24:03,Thu Nov 24 2022 08:24:03 GMT+0100 (CET),The main experiment item,yes,0,0,/Users/ethan/Documents/GitHub/OpenSesame/Class1,0,0,0,no,mono,no,18,no,white,no,no,768,885,3.6.1,psycho,psycho,5,osweb,1.4.11,1,teigr,253,,0,a,,space,a,space,916,,12632,916,3782,2,psycho,823,1440,24,900,24,0,25,1440,1669274727031,1024,2,48000,-16,experiment,1,odd,MacIntel,tiger,53284,49,49,49,,30,52168,53184,49,53335,54265,53234,12702,53334,ExPsyLing2022_Class1,13,19843,15,animal,yes,1024
88,88,1299,1299,black,no,block3,3,Mozilla,Netscape,"5.0 (Macintosh; Intel Mac OS X 10_15_7) AppleWebKit/605.1.15 (KHTML, like Gecko) Version/15.6.1 Safari/605.1.15",psycho,psycho,psycho,0,fully-scrambled,uniform,1,1,a,15,0,0,0,15,0,0,15,15,0,15,15,0,15,0,15,15,24-10-22,24-10-22,08:24:03,Thu Nov 24 2022 08:24:03 GMT+0100 (CET),The main experiment item,yes,0,0,/Users/ethan/Documents/GitHub/OpenSesame/Class1,0,0,0,no,mono,no,18,no,white,no,no,768,885,3.6.1,psycho,psycho,5,osweb,1.4.11,1,anpad,253,,0,a,,space,a,space,945,,12632,945,3782,2,psycho,823,1440,24,900,24,0,25,1440,1669274727031,1024,2,48000,-16,experiment,1,odd,MacIntel,panda,55384,49,49,49,,30,54291,55301,49,55435,56381,55351,12702,55435,ExPsyLing2022_Class1,14,20788,16,animal,yes,1024
88,88,1284,1284,black,no,block3,3,Mozilla,Netscape,"5.0 (Macintosh; Intel Mac OS X 10_15_7) AppleWebKit/605.1.15 (KHTML, like Gecko) Version/15.6.1 Safari/605.1.15",psycho,psycho,psycho,0,semi-scrambled,uniform,1,1,a,16,0,0,0,16,0,0,16,16,0,16,16,0,16,0,16,16,24-10-22,24-10-22,08:24:03,Thu Nov 24 2022 08:24:03 GMT+0100 (CET),The main experiment item,yes,0,0,/Users/ethan/Documents/GitHub/OpenSesame/Class1,0,0,0,no,mono,no,18,no,white,no,no,768,885,3.6.1,psycho,psycho,6,osweb,1.4.11,1,rbiabt,253,,0,a,,space,a,space,1041,,12632,1041,3782,2,psycho,823,1440,24,900,24,0,25,1440,1669274727031,1024,2,48000,-16,experiment,1,odd,MacIntel,rabbit,57502,49,49,49,,30,56413,57419,49,57551,58599,57468,12702,57551,ExPsyLing2022_Class1,15,21829,17,animal,yes,1024
89,89,1363,1363,black,no,block3,3,Mozilla,Netscape,"5.0 (Macintosh; Intel Mac OS X 10_15_7) AppleWebKit/605.1.15 (KHTML, like Gecko) Version/15.6.1 Safari/605.1.15",psycho,psycho,psycho,0,identical,uniform,1,1,f,17,0,0,0,17,0,0,17,17,0,17,17,0,17,0,17,17,24-10-22,24-10-22,08:24:03,Thu Nov 24 2022 08:24:03 GMT+0100 (CET),The main experiment item,yes,0,0,/Users/ethan/Documents/GitHub/OpenSesame/Class1,0,0,0,no,mono,no,18,no,white,no,no,768,885,3.6.1,psycho,psycho,7,osweb,1.4.11,1,pumpkin,253,,0,f,,space,f,space,2709,,12632,2709,3782,2,psycho,823,1440,24,900,24,0,25,1440,1669274727031,1024,2,48000,-16,experiment,1,odd,MacIntel,pumpkin,59752,49,49,49,,30,58635,59652,49,59802,62517,59702,12702,59802,ExPsyLing2022_Class1,16,24538,18,fruit_veg,yes,1024
89,89,1339,1339,black,no,block3,3,Mozilla,Netscape,"5.0 (Macintosh; Intel Mac OS X 10_15_7) AppleWebKit/605.1.15 (KHTML, like Gecko) Version/15.6.1 Safari/605.1.15",psycho,psycho,psycho,0,semi-scrambled,uniform,1,1,f,18,0,0,0,18,0,0,18,18,0,18,18,0,18,0,18,18,24-10-22,24-10-22,08:24:03,Thu Nov 24 2022 08:24:03 GMT+0100 (CET),The main experiment item,yes,0,0,/Users/ethan/Documents/GitHub/OpenSesame/Class1,0,0,0,no,mono,no,18,no,white,no,no,768,885,3.6.1,psycho,psycho,4,osweb,1.4.11,1,baen,253,,0,f,,space,f,space,897,,12632,897,3782,2,psycho,823,1440,24,900,24,0,25,1440,1669274727031,1024,2,48000,-16,experiment,1,odd,MacIntel,bean,63652,49,49,49,,30,62552,63569,49,63702,64599,63618,12702,63702,ExPsyLing2022_Class1,17,25435,19,fruit_veg,yes,1024
90,90,1308,1308,black,no,block3,3,Mozilla,Netscape,"5.0 (Macintosh; Intel Mac OS X 10_15_7) AppleWebKit/605.1.15 (KHTML, like Gecko) Version/15.6.1 Safari/605.1.15",psycho,psycho,psycho,0,identical,uniform,1,1,f,19,0,0,0,19,0,0,19,19,0,19,19,0,19,0,19,19,24-10-22,24-10-22,08:24:03,Thu Nov 24 2022 08:24:03 GMT+0100 (CET),The main experiment item,yes,0,0,/Users/ethan/Documents/GitHub/OpenSesame/Class1,0,0,0,no,mono,no,18,no,white,no,no,768,885,3.6.1,psycho,psycho,5,osweb,1.4.11,1,prune,253,,0,f,,space,f,space,715,,12632,715,3782,2,psycho,823,1440,24,900,24,0,25,1440,1669274727031,1024,2,48000,-16,experiment,1,odd,MacIntel,prune,65736,49,49,49,,30,64631,65636,49,65785,66500,65686,12702,65785,ExPsyLing2022_Class1,18,26150,20,fruit_veg,yes,1024
90,90,1277,1277,black,no,block3,3,Mozilla,Netscape,"5.0 (Macintosh; Intel Mac OS X 10_15_7) AppleWebKit/605.1.15 (KHTML, like Gecko) Version/15.6.1 Safari/605.1.15",psycho,psycho,psycho,0,identical,uniform,1,1,f,20,0,0,0,20,0,0,20,20,0,20,20,0,20,0,20,20,24-10-22,24-10-22,08:24:03,Thu Nov 24 2022 08:24:03 GMT+0100 (CET),The main experiment item,yes,0,0,/Users/ethan/Documents/GitHub/OpenSesame/Class1,0,0,0,no,mono,no,18,no,white,no,no,768,885,3.6.1,psycho,psycho,8,osweb,1.4.11,1,broccoli,253,,0,f,,space,f,space,660,,12632,660,3782,2,psycho,823,1440,24,900,24,0,25,1440,1669274727031,1024,2,48000,-16,experiment,1,odd,MacIntel,broccoli,67652,49,49,49,,30,66534,67553,49,67701,68365,67602,12702,67701,ExPsyLing2022_Class1,19,26810,21,fruit_veg,yes,1024
91,91,1252,1252,black,no,block3,3,Mozilla,Netscape,"5.0 (Macintosh; Intel Mac OS X 10_15_7) AppleWebKit/605.1.15 (KHTML, like Gecko) Version/15.6.1 Safari/605.1.15",psycho,psycho,psycho,0,semi-scrambled,uniform,1,1,f,21,0,0,0,21,0,0,21,21,0,21,21,0,21,0,21,21,24-10-22,24-10-22,08:24:03,Thu Nov 24 2022 08:24:03 GMT+0100 (CET),The main experiment item,yes,0,0,/Users/ethan/Documents/GitHub/OpenSesame/Class1,0,0,0,no,mono,no,18,no,white,no,no,768,885,3.6.1,psycho,psycho,4,osweb,1.4.11,1,cron,253,,0,f,,space,f,space,730,,12632,730,3782,2,psycho,823,1440,24,900,24,0,25,1440,1669274727031,1024,2,48000,-16,experiment,1,odd,MacIntel,corn,69501,49,49,49,,30,68404,69418,49,69552,70283,69468,12702,69552,ExPsyLing2022_Class1,20,27540,22,fruit_veg,yes,1024
91,91,1223,1223,black,no,block3,3,Mozilla,Netscape,"5.0 (Macintosh; Intel Mac OS X 10_15_7) AppleWebKit/605.1.15 (KHTML, like Gecko) Version/15.6.1 Safari/605.1.15",psycho,psycho,psycho,0,semi-scrambled,uniform,1,1,f,22,0,0,0,22,0,0,22,22,0,22,22,0,22,0,22,22,24-10-22,24-10-22,08:24:03,Thu Nov 24 2022 08:24:03 GMT+0100 (CET),The main experiment item,yes,0,0,/Users/ethan/Documents/GitHub/OpenSesame/Class1,0,0,0,no,mono,no,18,no,white,no,no,768,885,3.6.1,psycho,psycho,8,osweb,1.4.11,1,eangglpt,253,,0,f,,space,f,space,588,,12632,588,3782,2,psycho,823,1440,24,900,24,0,25,1440,1669274727031,1024,2,48000,-16,experiment,1,odd,MacIntel,eggplant,71434,49,49,49,,30,70320,71335,49,71484,72082,71386,12702,71484,ExPsyLing2022_Class1,21,28128,23,fruit_veg,yes,1024
88,88,1193,1193,black,no,block3,3,Mozilla,Netscape,"5.0 (Macintosh; Intel Mac OS X 10_15_7) AppleWebKit/605.1.15 (KHTML, like Gecko) Version/15.6.1 Safari/605.1.15",psycho,psycho,psycho,0,identical,uniform,0,0,a,23,0,0,0,23,0,0,23,23,0,23,23,0,23,0,23,23,24-10-22,24-10-22,08:24:03,Thu Nov 24 2022 08:24:03 GMT+0100 (CET),The main experiment item,yes,0,0,/Users/ethan/Documents/GitHub/OpenSesame/Class1,0,0,0,no,mono,no,18,no,white,no,no,768,885,3.6.1,psycho,psycho,4,osweb,1.4.11,1,lion,253,,0,f,,space,f,space,512,,12632,512,3782,2,psycho,823,1440,24,900,24,0,25,1440,1669274727031,1024,2,48000,-16,experiment,1,odd,MacIntel,lion,73203,49,49,49,,30,72109,73119,49,73252,73771,73169,12702,73252,ExPsyLing2022_Class1,21,28640,24,animal,yes,1024
88,88,1199,1199,black,no,block3,3,Mozilla,Netscape,"5.0 (Macintosh; Intel Mac OS X 10_15_7) AppleWebKit/605.1.15 (KHTML, like Gecko) Version/15.6.1 Safari/605.1.15",psycho,psycho,psycho,0,identical,uniform,1,1,f,24,0,0,0,24,0,0,24,24,0,24,24,0,24,0,24,24,24-10-22,24-10-22,08:24:03,Thu Nov 24 2022 08:24:03 GMT+0100 (CET),The main experiment item,yes,0,0,/Users/ethan/Documents/GitHub/OpenSesame/Class1,0,0,0,no,mono,no,18,no,white,no,no,768,885,3.6.1,psycho,psycho,5,osweb,1.4.11,1,grape,253,,0,f,,space,f,space,1323,,12632,1323,3782,2,psycho,823,1440,24,900,24,0,25,1440,1669274727031,1024,2,48000,-16,experiment,1,odd,MacIntel,grape,74903,49,49,49,,30,73799,74803,49,74953,76284,74853,12702,74953,ExPsyLing2022_Class1,22,29963,25,fruit_veg,yes,1024
88,88,1182,1182,black,no,block3,3,Mozilla,Netscape,"5.0 (Macintosh; Intel Mac OS X 10_15_7) AppleWebKit/605.1.15 (KHTML, like Gecko) Version/15.6.1 Safari/605.1.15",psycho,psycho,psycho,0,fully-scrambled,uniform,1,1,f,25,0,0,0,25,0,0,25,25,0,25,25,0,25,0,25,25,24-10-22,24-10-22,08:24:03,Thu Nov 24 2022 08:24:03 GMT+0100 (CET),The main experiment item,yes,0,0,/Users/ethan/Documents/GitHub/OpenSesame/Class1,0,0,0,no,mono,no,18,no,white,no,no,768,885,3.6.1,psycho,psycho,5,osweb,1.4.11,1,monel,253,,0,f,,space,f,space,759,,12632,759,3782,2,psycho,823,1440,24,900,24,0,25,1440,1669274727031,1024,2,48000,-16,experiment,1,odd,MacIntel,lemon,77403,49,49,49,,30,76309,77318,49,77453,78222,77368,12702,77453,ExPsyLing2022_Class1,23,30722,26,fruit_veg,yes,1024
89,89,1200,1200,black,no,block3,3,Mozilla,Netscape,"5.0 (Macintosh; Intel Mac OS X 10_15_7) AppleWebKit/605.1.15 (KHTML, like Gecko) Version/15.6.1 Safari/605.1.15",psycho,psycho,psycho,0,semi-scrambled,uniform,1,1,f,26,0,0,0,26,0,0,26,26,0,26,26,0,26,0,26,26,24-10-22,24-10-22,08:24:03,Thu Nov 24 2022 08:24:03 GMT+0100 (CET),The main experiment item,yes,0,0,/Users/ethan/Documents/GitHub/OpenSesame/Class1,0,0,0,no,mono,no,18,no,white,no,no,768,885,3.6.1,psycho,psycho,5,osweb,1.4.11,1,giala,253,,0,f,,space,f,space,1668,,12632,1668,3782,2,psycho,823,1440,24,900,24,0,25,1440,1669274727031,1024,2,48000,-16,experiment,1,odd,MacIntel,galia,79368,49,49,49,,30,78257,79270,49,79420,81101,79320,12702,79420,ExPsyLing2022_Class1,24,32390,27,fruit_veg,yes,1024
89,89,1179,1179,black,no,block3,3,Mozilla,Netscape,"5.0 (Macintosh; Intel Mac OS X 10_15_7) AppleWebKit/605.1.15 (KHTML, like Gecko) Version/15.6.1 Safari/605.1.15",psycho,psycho,psycho,0,identical,uniform,1,1,a,27,0,0,0,27,0,0,27,27,0,27,27,0,27,0,27,27,24-10-22,24-10-22,08:24:03,Thu Nov 24 2022 08:24:03 GMT+0100 (CET),The main experiment item,yes,0,0,/Users/ethan/Documents/GitHub/OpenSesame/Class1,0,0,0,no,mono,no,18,no,white,no,no,768,885,3.6.1,psycho,psycho,6,osweb,1.4.11,1,beaver,253,,0,a,,space,a,space,620,,12632,620,3782,2,psycho,823,1440,24,900,24,0,25,1440,1669274727031,1024,2,48000,-16,experiment,1,odd,MacIntel,beaver,82220,49,49,49,,30,81126,82137,49,82269,82902,82186,12702,82269,ExPsyLing2022_Class1,25,33010,28,animal,yes,1024
90,90,1186,1186,black,no,block3,3,Mozilla,Netscape,"5.0 (Macintosh; Intel Mac OS X 10_15_7) AppleWebKit/605.1.15 (KHTML, like Gecko) Version/15.6.1 Safari/605.1.15",psycho,psycho,psycho,0,identical,uniform,1,1,a,28,0,0,0,28,0,0,28,28,0,28,28,0,28,0,28,28,24-10-22,24-10-22,08:24:03,Thu Nov 24 2022 08:24:03 GMT+0100 (CET),The main experiment item,yes,0,0,/Users/ethan/Documents/GitHub/OpenSesame/Class1,0,0,0,no,mono,no,18,no,white,no,no,768,885,3.6.1,psycho,psycho,6,osweb,1.4.11,1,beaver,253,,0,a,,space,a,space,1384,,12632,1384,3782,2,psycho,823,1440,24,900,24,0,25,1440,1669274727031,1024,2,48000,-16,experiment,1,odd,MacIntel,beaver,84020,49,49,49,,30,82925,83937,49,84070,85467,83986,12702,84070,ExPsyLing2022_Class1,26,34394,29,animal,yes,1024
90,90,1196,1196,black,no,block3,3,Mozilla,Netscape,"5.0 (Macintosh; Intel Mac OS X 10_15_7) AppleWebKit/605.1.15 (KHTML, like Gecko) Version/15.6.1 Safari/605.1.15",psycho,psycho,psycho,0,fully-scrambled,uniform,1,1,f,29,0,0,0,29,0,0,29,29,0,29,29,0,29,0,29,29,24-10-22,24-10-22,08:24:03,Thu Nov 24 2022 08:24:03 GMT+0100 (CET),The main experiment item,yes,0,0,/Users/ethan/Documents/GitHub/OpenSesame/Class1,0,0,0,no,mono,no,18,no,white,no,no,768,885,3.6.1,psycho,psycho,8,osweb,1.4.11,1,liscanlo,253,,0,f,,space,f,space,1485,,12632,1485,3782,2,psycho,823,1440,24,900,24,0,25,1440,1669274727031,1024,2,48000,-16,experiment,1,odd,MacIntel,scallion,86587,49,49,49,,30,85488,86504,49,86637,88134,86553,12702,86637,ExPsyLing2022_Class1,27,35879,30,fruit_veg,yes,1024
90,90,1183,1183,black,no,block3,3,Mozilla,Netscape,"5.0 (Macintosh; Intel Mac OS X 10_15_7) AppleWebKit/605.1.15 (KHTML, like Gecko) Version/15.6.1 Safari/605.1.15",psycho,psycho,psycho,0,fully-scrambled,uniform,1,1,a,30,0,0,0,30,0,0,30,30,0,30,30,0,30,0,30,30,24-10-22,24-10-22,08:24:03,Thu Nov 24 2022 08:24:03 GMT+0100 (CET),The main experiment item,yes,0,0,/Users/ethan/Documents/GitHub/OpenSesame/Class1,0,0,0,no,mono,no,18,no,white,no,no,768,885,3.6.1,psycho,psycho,5,osweb,1.4.11,1,rhseo,253,,0,a,,space,a,space,795,,12632,795,3782,2,psycho,823,1440,24,900,24,0,25,1440,1669274727031,1024,2,48000,-16,experiment,1,odd,MacIntel,horse,89254,49,49,49,,30,88156,89170,49,89303,90106,89220,12702,89303,ExPsyLing2022_Class1,28,36674,31,animal,yes,1024
88,88,1166,1166,black,no,block3,3,Mozilla,Netscape,"5.0 (Macintosh; Intel Mac OS X 10_15_7) AppleWebKit/605.1.15 (KHTML, like Gecko) Version/15.6.1 Safari/605.1.15",psycho,psycho,psycho,0,fully-scrambled,uniform,0,0,a,31,0,0,0,31,0,0,31,31,0,31,31,0,31,0,31,31,24-10-22,24-10-22,08:24:03,Thu Nov 24 2022 08:24:03 GMT+0100 (CET),The main experiment item,yes,0,0,/Users/ethan/Documents/GitHub/OpenSesame/Class1,0,0,0,no,mono,no,18,no,white,no,no,768,885,3.6.1,psycho,psycho,7,osweb,1.4.11,1,ekhicnc,253,,0,f,,space,f,space,626,,12632,626,3782,2,psycho,823,1440,24,900,24,0,25,1440,1669274727031,1024,2,48000,-16,experiment,1,odd,MacIntel,chicken,91237,49,49,49,,30,90136,91156,49,91275,91917,91203,12702,91275,ExPsyLing2022_Class1,28,37300,32,animal,yes,1024
88,88,1193,1193,black,no,block3,3,Mozilla,Netscape,"5.0 (Macintosh; Intel Mac OS X 10_15_7) AppleWebKit/605.1.15 (KHTML, like Gecko) Version/15.6.1 Safari/605.1.15",psycho,psycho,psycho,0,identical,uniform,1,1,f,32,0,0,0,32,0,0,32,32,0,32,32,0,32,0,32,32,24-10-22,24-10-22,08:24:03,Thu Nov 24 2022 08:24:03 GMT+0100 (CET),The main experiment item,yes,0,0,/Users/ethan/Documents/GitHub/OpenSesame/Class1,0,0,0,no,mono,no,18,no,white,no,no,768,885,3.6.1,psycho,psycho,7,osweb,1.4.11,1,coconut,253,,0,f,,space,f,space,2083,,12632,2083,3782,2,psycho,823,1440,24,900,24,0,25,1440,1669274727031,1024,2,48000,-16,experiment,1,odd,MacIntel,coconut,93037,49,49,49,,30,91939,92954,49,93087,95184,93004,12702,93087,ExPsyLing2022_Class1,29,39383,33,fruit_veg,yes,1024
88,88,1180,1180,black,no,block3,3,Mozilla,Netscape,"5.0 (Macintosh; Intel Mac OS X 10_15_7) AppleWebKit/605.1.15 (KHTML, like Gecko) Version/15.6.1 Safari/605.1.15",psycho,psycho,psycho,0,fully-scrambled,uniform,1,1,a,33,0,0,0,33,0,0,33,33,0,33,33,0,33,0,33,33,24-10-22,24-10-22,08:24:03,Thu Nov 24 2022 08:24:03 GMT+0100 (CET),The main experiment item,yes,0,0,/Users/ethan/Documents/GitHub/OpenSesame/Class1,0,0,0,no,mono,no,18,no,white,no,no,768,885,3.6.1,psycho,psycho,6,osweb,1.4.11,1,ettlur,253,,0,a,,space,a,space,741,,12632,741,3782,2,psycho,823,1440,24,900,24,0,25,1440,1669274727031,1024,2,48000,-16,experiment,1,odd,MacIntel,turtle,96303,49,49,49,,30,95209,96221,49,96354,97101,96269,12702,96354,ExPsyLing2022_Class1,30,40124,34,animal,yes,1024
89,89,1180,1180,black,no,block3,3,Mozilla,Netscape,"5.0 (Macintosh; Intel Mac OS X 10_15_7) AppleWebKit/605.1.15 (KHTML, like Gecko) Version/15.6.1 Safari/605.1.15",psycho,psycho,psycho,0,fully-scrambled,uniform,1,1,f,34,0,0,0,34,0,0,34,34,0,34,34,0,34,0,34,34,24-10-22,24-10-22,08:24:03,Thu Nov 24 2022 08:24:03 GMT+0100 (CET),The main experiment item,yes,0,0,/Users/ethan/Documents/GitHub/OpenSesame/Class1,0,0,0,no,mono,no,18,no,white,no,no,768,885,3.6.1,psycho,psycho,4,osweb,1.4.11,1,lkea,253,,0,f,,space,f,space,1186,,12632,1186,3782,2,psycho,823,1440,24,900,24,0,25,1440,1669274727031,1024,2,48000,-16,experiment,1,odd,MacIntel,kale,98221,49,49,49,,30,97119,98137,49,98270,99469,98186,12702,98270,ExPsyLing2022_Class1,31,41310,35,fruit_veg,yes,1024
89,89,1170,1170,black,no,block3,3,Mozilla,Netscape,"5.0 (Macintosh; Intel Mac OS X 10_15_7) AppleWebKit/605.1.15 (KHTML, like Gecko) Version/15.6.1 Safari/605.1.15",psycho,psycho,psycho,0,semi-scrambled,uniform,1,1,f,35,0,0,0,35,0,0,35,35,0,35,35,0,35,0,35,35,24-10-22,24-10-22,08:24:03,Thu Nov 24 2022 08:24:03 GMT+0100 (CET),The main experiment item,yes,0,0,/Users/ethan/Documents/GitHub/OpenSesame/Class1,0,0,0,no,mono,no,18,no,white,no,no,768,885,3.6.1,psycho,psycho,7,osweb,1.4.11,1,lteucte,253,,0,f,,space,f,space,792,,12632,792,3782,2,psycho,823,1440,24,900,24,0,25,1440,1669274727031,1024,2,48000,-16,experiment,1,odd,MacIntel,lettuce,100588,49,49,49,,30,99488,100504,49,100638,101436,100554,12702,100637,ExPsyLing2022_Class1,32,42102,36,fruit_veg,yes,1024
89,89,1159,1159,black,no,block3,3,Mozilla,Netscape,"5.0 (Macintosh; Intel Mac OS X 10_15_7) AppleWebKit/605.1.15 (KHTML, like Gecko) Version/15.6.1 Safari/605.1.15",psycho,psycho,psycho,0,fully-scrambled,uniform,1,1,f,36,0,0,0,36,0,0,36,36,0,36,36,0,36,0,36,36,24-10-22,24-10-22,08:24:03,Thu Nov 24 2022 08:24:03 GMT+0100 (CET),The main experiment item,yes,0,0,/Users/ethan/Documents/GitHub/OpenSesame/Class1,0,0,0,no,mono,no,18,no,white,no,no,768,885,3.6.1,psycho,psycho,5,osweb,1.4.11,1,levio,253,,0,f,,space,f,space,766,,12632,766,3782,2,psycho,823,1440,24,900,24,0,25,1440,1669274727031,1024,2,48000,-16,experiment,1,odd,MacIntel,olive,102554,49,49,49,,30,101460,102471,49,102604,103370,102521,12702,102604,ExPsyLing2022_Class1,33,42868,37,fruit_veg,yes,1024
89,89,1162,1162,black,no,block3,3,Mozilla,Netscape,"5.0 (Macintosh; Intel Mac OS X 10_15_7) AppleWebKit/605.1.15 (KHTML, like Gecko) Version/15.6.1 Safari/605.1.15",psycho,psycho,psycho,0,fully-scrambled,uniform,1,1,f,37,0,0,0,37,0,0,37,37,0,37,37,0,37,0,37,37,24-10-22,24-10-22,08:24:03,Thu Nov 24 2022 08:24:03 GMT+0100 (CET),The main experiment item,yes,0,0,/Users/ethan/Documents/GitHub/OpenSesame/Class1,0,0,0,no,mono,no,18,no,white,no,no,768,885,3.6.1,psycho,psycho,7,osweb,1.4.11,1,isaprpn,253,,0,f,,space,f,space,1302,,12632,1302,3782,2,psycho,823,1440,24,900,24,0,25,1440,1669274727031,1024,2,48000,-16,experiment,1,odd,MacIntel,parsnip,104488,49,49,49,,30,103399,104405,49,104538,105851,104454,12702,104538,ExPsyLing2022_Class1,34,44170,38,fruit_veg,yes,1024
90,90,1154,1154,black,no,block3,3,Mozilla,Netscape,"5.0 (Macintosh; Intel Mac OS X 10_15_7) AppleWebKit/605.1.15 (KHTML, like Gecko) Version/15.6.1 Safari/605.1.15",psycho,psycho,psycho,0,identical,uniform,1,1,a,38,0,0,0,38,0,0,38,38,0,38,38,0,38,0,38,38,24-10-22,24-10-22,08:24:03,Thu Nov 24 2022 08:24:03 GMT+0100 (CET),The main experiment item,yes,0,0,/Users/ethan/Documents/GitHub/OpenSesame/Class1,0,0,0,no,mono,no,18,no,white,no,no,768,885,3.6.1,psycho,psycho,4,osweb,1.4.11,1,goat,253,,0,a,,space,a,space,839,,12632,839,3782,2,psycho,823,1440,24,900,24,0,25,1440,1669274727031,1024,2,48000,-16,experiment,1,odd,MacIntel,goat,106971,49,49,49,,30,105872,106889,49,107021,107868,106937,12702,107021,ExPsyLing2022_Class1,35,45009,39,animal,yes,1024
90,90,1142,1142,black,no,block3,3,Mozilla,Netscape,"5.0 (Macintosh; Intel Mac OS X 10_15_7) AppleWebKit/605.1.15 (KHTML, like Gecko) Version/15.6.1 Safari/605.1.15",psycho,psycho,psycho,0,semi-scrambled,uniform,1,1,a,39,0,0,0,39,0,0,39,39,0,39,39,0,39,0,39,39,24-10-22,24-10-22,08:24:03,Thu Nov 24 2022 08:24:03 GMT+0100 (CET),The main experiment item,yes,0,0,/Users/ethan/Documents/GitHub/OpenSesame/Class1,0,0,0,no,mono,no,18,no,white,no,no,768,885,3.6.1,psycho,psycho,4,osweb,1.4.11,1,hrae,253,,0,a,,space,a,space,688,,12632,688,3782,2,psycho,823,1440,24,900,24,0,25,1440,1669274727031,1024,2,48000,-16,experiment,1,odd,MacIntel,hare,109005,49,49,49,,30,107904,108922,49,109055,109752,108971,12702,109055,ExPsyLing2022_Class1,36,45697,40,animal,yes,1024
90,90,1136,1136,black,no,block3,3,Mozilla,Netscape,"5.0 (Macintosh; Intel Mac OS X 10_15_7) AppleWebKit/605.1.15 (KHTML, like Gecko) Version/15.6.1 Safari/605.1.15",psycho,psycho,psycho,0,identical,uniform,1,1,a,40,0,0,0,40,0,0,40,40,0,40,40,0,40,0,40,40,24-10-22,24-10-22,08:24:03,Thu Nov 24 2022 08:24:03 GMT+0100 (CET),The main experiment item,yes,0,0,/Users/ethan/Documents/GitHub/OpenSesame/Class1,0,0,0,no,mono,no,18,no,white,no,no,768,885,3.6.1,psycho,psycho,7,osweb,1.4.11,1,dolphin,253,,0,a,space,space,a,space,879,3185,12632,879,3782,2,psycho,823,1440,24,900,24,0,25,1440,1669274727031,1024,2,48000,-16,experiment,1,odd,MacIntel,dolphin,114072,49,49,49,109778,30,112973,113988,49,114121,115005,114038,12702,114121,ExPsyLing2022_Class1,37,46576,41,animal,yes,1024
90,90,1127,1127,black,no,block3,3,Mozilla,Netscape,"5.0 (Macintosh; Intel Mac OS X 10_15_7) AppleWebKit/605.1.15 (KHTML, like Gecko) Version/15.6.1 Safari/605.1.15",psycho,psycho,psycho,0,semi-scrambled,uniform,1,1,a,41,0,0,0,41,0,0,41,41,0,41,41,0,41,0,41,41,24-10-22,24-10-22,08:24:03,Thu Nov 24 2022 08:24:03 GMT+0100 (CET),The main experiment item,yes,0,0,/Users/ethan/Documents/GitHub/OpenSesame/Class1,0,0,0,no,mono,no,18,no,white,no,no,768,885,3.6.1,psycho,psycho,5,osweb,1.4.11,1,msoue,253,,0,a,space,space,a,space,760,3185,12632,760,3782,2,psycho,823,1440,24,900,24,0,25,1440,1669274727031,1024,2,48000,-16,experiment,1,odd,MacIntel,mouse,116122,49,49,49,109778,30,115031,116039,49,116171,116935,116088,12702,116171,ExPsyLing2022_Class1,38,47336,42,animal,yes,1024
91,91,1117,1117,black,no,block3,3,Mozilla,Netscape,"5.0 (Macintosh; Intel Mac OS X 10_15_7) AppleWebKit/605.1.15 (KHTML, like Gecko) Version/15.6.1 Safari/605.1.15",psycho,psycho,psycho,0,identical,uniform,1,1,a,42,0,0,0,42,0,0,42,42,0,42,42,0,42,0,42,42,24-10-22,24-10-22,08:24:03,Thu Nov 24 2022 08:24:03 GMT+0100 (CET),The main experiment item,yes,0,0,/Users/ethan/Documents/GitHub/OpenSesame/Class1,0,0,0,no,mono,no,18,no,white,no,no,768,885,3.6.1,psycho,psycho,7,osweb,1.4.11,1,raccoon,253,,0,a,space,space,a,space,680,3185,12632,680,3782,2,psycho,823,1440,24,900,24,0,25,1440,1669274727031,1024,2,48000,-16,experiment,1,odd,MacIntel,raccoon,118055,49,49,49,109778,30,116962,117972,49,118106,118787,118022,12702,118105,ExPsyLing2022_Class1,39,48016,43,animal,yes,1024
91,91,1110,1110,black,no,block3,3,Mozilla,Netscape,"5.0 (Macintosh; Intel Mac OS X 10_15_7) AppleWebKit/605.1.15 (KHTML, like Gecko) Version/15.6.1 Safari/605.1.15",psycho,psycho,psycho,0,semi-scrambled,uniform,1,1,f,43,0,0,0,43,0,0,43,43,0,43,43,0,43,0,43,43,24-10-22,24-10-22,08:24:03,Thu Nov 24 2022 08:24:03 GMT+0100 (CET),The main experiment item,yes,0,0,/Users/ethan/Documents/GitHub/OpenSesame/Class1,0,0,0,no,mono,no,18,no,white,no,no,768,885,3.6.1,psycho,psycho,7,osweb,1.4.11,1,aocpirt,253,,0,f,space,space,f,space,814,3185,12632,814,3782,2,psycho,823,1440,24,900,24,0,25,1440,1669274727031,1024,2,48000,-16,experiment,1,odd,MacIntel,apricot,119905,49,49,49,109778,30,118818,119822,49,119954,120772,119871,12702,119954,ExPsyLing2022_Class1,40,48830,44,fruit_veg,yes,1024
91,91,1101,1101,black,no,block3,3,Mozilla,Netscape,"5.0 (Macintosh; Intel Mac OS X 10_15_7) AppleWebKit/605.1.15 (KHTML, like Gecko) Version/15.6.1 Safari/605.1.15",psycho,psycho,psycho,0,semi-scrambled,uniform,1,1,a,44,0,0,0,44,0,0,44,44,0,44,44,0,44,0,44,44,24-10-22,24-10-22,08:24:03,Thu Nov 24 2022 08:24:03 GMT+0100 (CET),The main experiment item,yes,0,0,/Users/ethan/Documents/GitHub/OpenSesame/Class1,0,0,0,no,mono,no,18,no,white,no,no,768,885,3.6.1,psycho,psycho,7,osweb,1.4.11,1,oputucs,253,,0,a,space,space,a,space,736,3185,12632,736,3782,2,psycho,823,1440,24,900,24,0,25,1440,1669274727031,1024,2,48000,-16,experiment,1,odd,MacIntel,octupus,121888,49,49,49,109778,30,120800,121806,49,121939,122687,121854,12702,121939,ExPsyLing2022_Class1,41,49566,45,animal,yes,1024
91,91,1097,1097,black,no,block3,3,Mozilla,Netscape,"5.0 (Macintosh; Intel Mac OS X 10_15_7) AppleWebKit/605.1.15 (KHTML, like Gecko) Version/15.6.1 Safari/605.1.15",psycho,psycho,psycho,0,identical,uniform,1,1,f,45,0,0,0,45,0,0,45,45,0,45,45,0,45,0,45,45,24-10-22,24-10-22,08:24:03,Thu Nov 24 2022 08:24:03 GMT+0100 (CET),The main experiment item,yes,0,0,/Users/ethan/Documents/GitHub/OpenSesame/Class1,0,0,0,no,mono,no,18,no,white,no,no,768,885,3.6.1,psycho,psycho,4,osweb,1.4.11,1,plum,253,,0,f,space,space,f,space,884,3185,12632,884,3782,2,psycho,823,1440,24,900,24,0,25,1440,1669274727031,1024,2,48000,-16,experiment,1,odd,MacIntel,plum,123805,49,49,49,109778,30,122710,123721,49,123856,124753,123772,12702,123856,ExPsyLing2022_Class1,42,50450,46,fruit_veg,yes,1024
