acc,accuracy,average_response_time,avg_rt,background,bidi,block,block_picker,browser_codename,browser_name,browser_version,canvas_backend,clock_backend,color_backend,compensation,condition,coordinates,correct,correct_keyboard_response,correct_response,count_backward_mask,count_block_1,count_block_2,count_block_3,count_break,count_correct,count_counter_balance,count_experiment,count_fix,count_forward_mask,count_incorrect,count_instructions_1,count_instructions_2,count_instructions_3,count_instructions_4,count_keyboard_response,count_logger,count_osweb,count_practice_loop,count_prime,count_target,count_trials,date_startdate,date_startdateUTC,date_starttime,datetime,description,disable_garbage_collection,experiment_debug,experiment_parameters,experiment_path,experiment_pilot,experiment_taskname,experiment_taskversion,font_bold,font_family,font_italic,font_size,font_underline,foreground,form_clicks,fullscreen,height,jatosStudyResultId,jatosVersion,keyboard_backend,mouse_backend,num_letters,opensesame_codename,opensesame_version,penwidth,prime,queryParams_batchId,queryParams_fbclid,queryParams_generalMultiple,repeat_cycle,response,response_break,response_instructions_1,response_instructions_2,response_instructions_3,response_instructions_4,response_keyboard_response,response_time,response_time_break,response_time_instructions_1,response_time_instructions_2,response_time_instructions_3,response_time_instructions_4,response_time_keyboard_response,round_decimals,sampler_backend,screen_availableHeight,screen_availableWidth,screen_colorDepth,screen_height,screen_pixelDepth,screen_screenX,screen_screenY,screen_width,sessionid,sound_buf_size,sound_channels,sound_freq,sound_sample_size,start,subject_nr,subject_parity,system_os,target,time_backward_mask,time_block_1,time_block_2,time_block_3,time_break,time_correct,time_counter_balance,time_fix,time_forward_mask,time_incorrect,time_instructions_1,time_instructions_2,time_instructions_3,time_instructions_4,time_keyboard_response,time_logger,time_practice_loop,time_prime,time_target,title,total_correct,total_response_time,total_responses,type,uniform_coordinates,width
0,0,888,888,black,no,practice,3,Mozilla,Netscape,5.0 (Macintosh),psycho,psycho,psycho,0,practice,uniform,0,0,f,0,0,0,0,0,0,0,0,0,0,0,0,0,0,0,0,0,0,0,0,0,0,05-11-22,05-11-22,12:00:53,Mon Dec 05 2022 12:00:53 GMT+0100 (Central European Standard Time),The main experiment item,yes,0,0,/Users/ethan/Documents/GitHub/OpenSesame/Class1,0,0,0,no,mono,no,18,no,white,no,no,768,1005,3.6.1,psycho,psycho,5,osweb,1.4.11,1,#####,268,,,0,a,,f,f,f,,a,888,,20898,4159,2204,,888,2,psycho,875,1440,30,900,30,0,25,1440,1670238072813,1024,2,48000,-16,experiment,1,odd,MacIntel,apple,28101,24,24,24,,,22,27338,28000,,24,20932,25100,,28150,29049,24,28050,28150,ExPsyLing2022_Class1,0,888,1,fruit_veg,yes,1024
50,50,959,959,black,no,practice,3,Mozilla,Netscape,5.0 (Macintosh),psycho,psycho,psycho,0,practice,uniform,1,1,a,1,0,0,0,1,1,0,0,1,1,1,0,0,0,0,1,1,0,0,1,1,1,05-11-22,05-11-22,12:00:53,Mon Dec 05 2022 12:00:53 GMT+0100 (Central European Standard Time),The main experiment item,yes,0,0,/Users/ethan/Documents/GitHub/OpenSesame/Class1,0,0,0,no,mono,no,18,no,white,no,no,768,1005,3.6.1,psycho,psycho,4,osweb,1.4.11,1,#####,268,,,0,a,,f,f,f,,a,1029,,20898,4159,2204,,1029,2,psycho,875,1440,30,900,30,0,25,1440,1670238072813,1024,2,48000,-16,experiment,1,odd,MacIntel,wolf,30317,24,24,24,,,22,29581,30234,29053,24,20932,25100,,30367,31399,24,30285,30367,ExPsyLing2022_Class1,1,1917,2,animal,yes,1024
67,67,837,837,black,no,practice,3,Mozilla,Netscape,5.0 (Macintosh),psycho,psycho,psycho,0,practice,uniform,1,1,f,2,0,0,0,2,2,0,0,2,2,2,0,0,0,0,2,2,0,0,2,2,2,05-11-22,05-11-22,12:00:53,Mon Dec 05 2022 12:00:53 GMT+0100 (Central European Standard Time),The main experiment item,yes,0,0,/Users/ethan/Documents/GitHub/OpenSesame/Class1,0,0,0,no,mono,no,18,no,white,no,no,768,1005,3.6.1,psycho,psycho,5,osweb,1.4.11,1,#####,268,,,0,f,,f,f,f,,f,594,,20898,4159,2204,,594,2,psycho,875,1440,30,900,30,0,25,1440,1670238072813,1024,2,48000,-16,experiment,1,odd,MacIntel,melon,32665,24,24,24,,31401,22,31933,32597,29053,24,20932,25100,,32700,33299,24,32634,32700,ExPsyLing2022_Class1,2,2511,3,fruit_veg,yes,1024
75,75,817,817,black,no,practice,3,Mozilla,Netscape,5.0 (Macintosh),psycho,psycho,psycho,0,practice,uniform,1,1,a,3,0,0,0,3,3,0,0,3,3,3,0,0,0,0,3,3,0,0,3,3,3,05-11-22,05-11-22,12:00:53,Mon Dec 05 2022 12:00:53 GMT+0100 (Central European Standard Time),The main experiment item,yes,0,0,/Users/ethan/Documents/GitHub/OpenSesame/Class1,0,0,0,no,mono,no,18,no,white,no,no,768,1005,3.6.1,psycho,psycho,5,osweb,1.4.11,1,#####,268,,,0,a,,f,f,f,,a,757,,20898,4159,2204,,757,2,psycho,875,1440,30,900,30,0,25,1440,1670238072813,1024,2,48000,-16,experiment,1,odd,MacIntel,hound,34567,24,24,24,,33301,22,33828,34483,29053,24,20932,25100,,34616,35380,24,34533,34616,ExPsyLing2022_Class1,3,3268,4,animal,yes,1024
80,80,773,773,black,no,practice,3,Mozilla,Netscape,5.0 (Macintosh),psycho,psycho,psycho,0,practice,uniform,1,1,f,4,0,0,0,4,4,0,0,4,4,4,0,0,0,0,4,4,0,0,4,4,4,05-11-22,05-11-22,12:00:53,Mon Dec 05 2022 12:00:53 GMT+0100 (Central European Standard Time),The main experiment item,yes,0,0,/Users/ethan/Documents/GitHub/OpenSesame/Class1,0,0,0,no,mono,no,18,no,white,no,no,768,1005,3.6.1,psycho,psycho,6,osweb,1.4.11,1,#####,268,,,0,f,,f,f,f,,f,599,,20898,4159,2204,,599,2,psycho,875,1440,30,900,30,0,25,1440,1670238072813,1024,2,48000,-16,experiment,1,odd,MacIntel,tomato,36666,24,24,24,,35383,22,35915,36583,29053,24,20932,25100,,36713,37315,24,36632,36713,ExPsyLing2022_Class1,4,3867,5,fruit_veg,yes,1024
83,83,784,784,black,no,practice,3,Mozilla,Netscape,5.0 (Macintosh),psycho,psycho,psycho,0,practice,uniform,1,1,a,5,0,0,0,5,5,0,0,5,5,5,0,0,0,0,5,5,0,0,5,5,5,05-11-22,05-11-22,12:00:53,Mon Dec 05 2022 12:00:53 GMT+0100 (Central European Standard Time),The main experiment item,yes,0,0,/Users/ethan/Documents/GitHub/OpenSesame/Class1,0,0,0,no,mono,no,18,no,white,no,no,768,1005,3.6.1,psycho,psycho,6,osweb,1.4.11,1,#####,268,,,0,a,,f,f,f,,a,835,,20898,4159,2204,,835,2,psycho,875,1440,30,900,30,0,25,1440,1670238072813,1024,2,48000,-16,experiment,1,odd,MacIntel,spider,38581,24,24,24,,37317,22,37847,38514,29053,24,20932,25100,,38631,39482,24,38550,38631,ExPsyLing2022_Class1,5,4702,6,animal,yes,1024
86,86,772,772,black,no,block3,3,Mozilla,Netscape,5.0 (Macintosh),psycho,psycho,psycho,0,identical,uniform,1,1,a,6,0,0,0,6,6,0,0,6,6,6,0,0,0,0,6,6,0,0,6,6,6,05-11-22,05-11-22,12:00:53,Mon Dec 05 2022 12:00:53 GMT+0100 (Central European Standard Time),The main experiment item,yes,0,0,/Users/ethan/Documents/GitHub/OpenSesame/Class1,0,0,0,no,mono,no,18,no,white,no,no,768,1005,3.6.1,psycho,psycho,4,osweb,1.4.11,1,goat,268,,,0,a,,f,f,f,a,a,701,,20898,4159,2204,9661,701,2,psycho,875,1440,30,900,30,0,25,1440,1670238072813,1024,2,48000,-16,experiment,1,odd,MacIntel,goat,50416,24,24,24,,39484,22,49678,50334,29053,24,20932,25100,40000,50450,51164,24,50384,50450,ExPsyLing2022_Class1,6,5403,7,animal,yes,1024
88,88,744,744,black,no,block3,3,Mozilla,Netscape,5.0 (Macintosh),psycho,psycho,psycho,0,semi-scrambled,uniform,1,1,a,7,0,0,0,7,7,0,0,7,7,7,0,0,0,0,7,7,0,0,7,7,7,05-11-22,05-11-22,12:00:53,Mon Dec 05 2022 12:00:53 GMT+0100 (Central European Standard Time),The main experiment item,yes,0,0,/Users/ethan/Documents/GitHub/OpenSesame/Class1,0,0,0,no,mono,no,18,no,white,no,no,768,1005,3.6.1,psycho,psycho,7,osweb,1.4.11,1,glilroa,268,,,0,a,,f,f,f,a,a,547,,20898,4159,2204,9661,547,2,psycho,875,1440,30,900,30,0,25,1440,1670238072813,1024,2,48000,-16,experiment,1,odd,MacIntel,gorilla,52415,24,24,24,,51165,22,51696,52348,29053,24,20932,25100,40000,52451,53013,24,52382,52451,ExPsyLing2022_Class1,7,5950,8,animal,yes,1024
89,89,734,734,black,no,block3,3,Mozilla,Netscape,5.0 (Macintosh),psycho,psycho,psycho,0,fully-scrambled,uniform,1,1,a,8,0,0,0,8,8,0,0,8,8,8,0,0,0,0,8,8,0,0,8,8,8,05-11-22,05-11-22,12:00:53,Mon Dec 05 2022 12:00:53 GMT+0100 (Central European Standard Time),The main experiment item,yes,0,0,/Users/ethan/Documents/GitHub/OpenSesame/Class1,0,0,0,no,mono,no,18,no,white,no,no,768,1005,3.6.1,psycho,psycho,4,osweb,1.4.11,1,amup,268,,,0,a,,f,f,f,a,a,652,,20898,4159,2204,9661,652,2,psycho,875,1440,30,900,30,0,25,1440,1670238072813,1024,2,48000,-16,experiment,1,odd,MacIntel,puma,54283,24,24,24,,53014,22,53547,54200,29053,24,20932,25100,40000,54331,54996,24,54248,54330,ExPsyLing2022_Class1,8,6602,9,animal,yes,1024
80,80,719,719,black,no,block3,3,Mozilla,Netscape,5.0 (Macintosh),psycho,psycho,psycho,0,fully-scrambled,uniform,0,0,a,9,0,0,0,9,9,0,0,9,9,9,0,0,0,0,9,9,0,0,9,9,9,05-11-22,05-11-22,12:00:53,Mon Dec 05 2022 12:00:53 GMT+0100 (Central European Standard Time),The main experiment item,yes,0,0,/Users/ethan/Documents/GitHub/OpenSesame/Class1,0,0,0,no,mono,no,18,no,white,no,no,768,1005,3.6.1,psycho,psycho,7,osweb,1.4.11,1,ekhicnc,268,,,0,f,,f,f,f,a,f,588,,20898,4159,2204,9661,588,2,psycho,875,1440,30,900,30,0,25,1440,1670238072813,1024,2,48000,-16,experiment,1,odd,MacIntel,chicken,56266,24,24,24,,54999,22,55532,56199,29053,24,20932,25100,40000,56315,56914,24,56233,56315,ExPsyLing2022_Class1,8,7190,10,animal,yes,1024
82,82,713,713,black,no,block3,3,Mozilla,Netscape,5.0 (Macintosh),psycho,psycho,psycho,0,semi-scrambled,uniform,1,1,f,10,0,0,0,10,10,0,0,10,10,10,0,0,0,0,10,10,0,0,10,10,10,05-11-22,05-11-22,12:00:53,Mon Dec 05 2022 12:00:53 GMT+0100 (Central European Standard Time),The main experiment item,yes,0,0,/Users/ethan/Documents/GitHub/OpenSesame/Class1,0,0,0,no,mono,no,18,no,white,no,no,768,1005,3.6.1,psycho,psycho,4,osweb,1.4.11,1,lmie,268,,,0,f,,f,f,f,a,f,654,,20898,4159,2204,9661,654,2,psycho,875,1440,30,900,30,0,25,1440,1670238072813,1024,2,48000,-16,experiment,1,odd,MacIntel,lime,58199,24,24,24,,54999,22,57447,58117,56917,24,20932,25100,40000,58251,58915,24,58167,58251,ExPsyLing2022_Class1,9,7844,11,fruit_veg,yes,1024
83,83,713,713,black,no,block3,3,Mozilla,Netscape,5.0 (Macintosh),psycho,psycho,psycho,0,identical,uniform,1,1,a,11,0,0,0,11,11,0,0,11,11,11,0,0,0,0,11,11,0,0,11,11,11,05-11-22,05-11-22,12:00:53,Mon Dec 05 2022 12:00:53 GMT+0100 (Central European Standard Time),The main experiment item,yes,0,0,/Users/ethan/Documents/GitHub/OpenSesame/Class1,0,0,0,no,mono,no,18,no,white,no,no,768,1005,3.6.1,psycho,psycho,8,osweb,1.4.11,1,flamingo,268,,,0,a,,f,f,f,a,a,717,,20898,4159,2204,9661,717,2,psycho,875,1440,30,900,30,0,25,1440,1670238072813,1024,2,48000,-16,experiment,1,odd,MacIntel,flamingo,60165,24,24,24,,58917,22,59445,60099,56917,24,20932,25100,40000,60200,60932,24,60133,60200,ExPsyLing2022_Class1,10,8561,12,animal,yes,1024
85,85,706,706,black,no,block3,3,Mozilla,Netscape,5.0 (Macintosh),psycho,psycho,psycho,0,fully-scrambled,uniform,1,1,a,12,0,0,0,12,12,0,0,12,12,12,0,0,0,0,12,12,0,0,12,12,12,05-11-22,05-11-22,12:00:53,Mon Dec 05 2022 12:00:53 GMT+0100 (Central European Standard Time),The main experiment item,yes,0,0,/Users/ethan/Documents/GitHub/OpenSesame/Class1,0,0,0,no,mono,no,18,no,white,no,no,768,1005,3.6.1,psycho,psycho,5,osweb,1.4.11,1,anpad,268,,,0,a,,f,f,f,a,a,622,,20898,4159,2204,9661,622,2,psycho,875,1440,30,900,30,0,25,1440,1670238072813,1024,2,48000,-16,experiment,1,odd,MacIntel,panda,62199,24,24,24,,60933,22,61463,62133,56917,24,20932,25100,40000,62250,62882,24,62167,62250,ExPsyLing2022_Class1,11,9183,13,animal,yes,1024
86,86,699,699,black,no,block3,3,Mozilla,Netscape,5.0 (Macintosh),psycho,psycho,psycho,0,identical,uniform,1,1,f,13,0,0,0,13,13,0,0,13,13,13,0,0,0,0,13,13,0,0,13,13,13,05-11-22,05-11-22,12:00:53,Mon Dec 05 2022 12:00:53 GMT+0100 (Central European Standard Time),The main experiment item,yes,0,0,/Users/ethan/Documents/GitHub/OpenSesame/Class1,0,0,0,no,mono,no,18,no,white,no,no,768,1005,3.6.1,psycho,psycho,8,osweb,1.4.11,1,cucumber,268,,,0,f,,f,f,f,a,f,599,,20898,4159,2204,9661,599,2,psycho,875,1440,30,900,30,0,25,1440,1670238072813,1024,2,48000,-16,experiment,1,odd,MacIntel,cucumber,64132,24,24,24,,62884,22,63410,64064,56917,24,20932,25100,40000,64183,64782,24,64099,64183,ExPsyLing2022_Class1,12,9782,14,fruit_veg,yes,1024
87,87,696,696,black,no,block3,3,Mozilla,Netscape,5.0 (Macintosh),psycho,psycho,psycho,0,fully-scrambled,uniform,1,1,a,14,0,0,0,14,14,0,0,14,14,14,0,0,0,0,14,14,0,0,14,14,14,05-11-22,05-11-22,12:00:53,Mon Dec 05 2022 12:00:53 GMT+0100 (Central European Standard Time),The main experiment item,yes,0,0,/Users/ethan/Documents/GitHub/OpenSesame/Class1,0,0,0,no,mono,no,18,no,white,no,no,768,1005,3.6.1,psycho,psycho,8,osweb,1.4.11,1,aaesoehr,268,,,0,a,,f,f,f,a,a,653,,20898,4159,2204,9661,653,2,psycho,875,1440,30,900,30,0,25,1440,1670238072813,1024,2,48000,-16,experiment,1,odd,MacIntel,seahorse,66066,24,24,24,,64784,22,65312,65984,56917,24,20932,25100,40000,66102,66766,24,66032,66102,ExPsyLing2022_Class1,13,10435,15,animal,yes,1024
88,88,698,698,black,no,block3,3,Mozilla,Netscape,5.0 (Macintosh),psycho,psycho,psycho,0,semi-scrambled,uniform,1,1,f,15,0,0,0,15,15,0,0,15,15,15,0,0,0,0,15,15,0,0,15,15,15,05-11-22,05-11-22,12:00:53,Mon Dec 05 2022 12:00:53 GMT+0100 (Central European Standard Time),The main experiment item,yes,0,0,/Users/ethan/Documents/GitHub/OpenSesame/Class1,0,0,0,no,mono,no,18,no,white,no,no,768,1005,3.6.1,psycho,psycho,5,osweb,1.4.11,1,mgano,268,,,0,f,,f,f,f,a,f,739,,20898,4159,2204,9661,739,2,psycho,875,1440,30,900,30,0,25,1440,1670238072813,1024,2,48000,-16,experiment,1,odd,MacIntel,mango,68034,24,24,24,,66768,22,67295,67948,56917,24,20932,25100,40000,68084,68832,24,67985,68084,ExPsyLing2022_Class1,14,11174,16,fruit_veg,yes,1024
88,88,689,689,black,no,block3,3,Mozilla,Netscape,5.0 (Macintosh),psycho,psycho,psycho,0,identical,uniform,1,1,f,16,0,0,0,16,16,0,0,16,16,16,0,0,0,0,16,16,0,0,16,16,16,05-11-22,05-11-22,12:00:53,Mon Dec 05 2022 12:00:53 GMT+0100 (Central European Standard Time),The main experiment item,yes,0,0,/Users/ethan/Documents/GitHub/OpenSesame/Class1,0,0,0,no,mono,no,18,no,white,no,no,768,1005,3.6.1,psycho,psycho,8,osweb,1.4.11,1,broccoli,268,,,0,f,,f,f,f,a,f,535,,20898,4159,2204,9661,535,2,psycho,875,1440,30,900,30,0,25,1440,1670238072813,1024,2,48000,-16,experiment,1,odd,MacIntel,broccoli,70115,24,24,24,,68839,22,69371,70033,56917,24,20932,25100,40000,70150,70698,24,70082,70150,ExPsyLing2022_Class1,15,11709,17,fruit_veg,yes,1024
89,89,682,682,black,no,block3,3,Mozilla,Netscape,5.0 (Macintosh),psycho,psycho,psycho,0,semi-scrambled,uniform,1,1,a,17,0,0,0,17,17,0,0,17,17,17,0,0,0,0,17,17,0,0,17,17,17,05-11-22,05-11-22,12:00:53,Mon Dec 05 2022 12:00:53 GMT+0100 (Central European Standard Time),The main experiment item,yes,0,0,/Users/ethan/Documents/GitHub/OpenSesame/Class1,0,0,0,no,mono,no,18,no,white,no,no,768,1005,3.6.1,psycho,psycho,5,osweb,1.4.11,1,teigr,268,,,0,a,,f,f,f,a,a,561,,20898,4159,2204,9661,561,2,psycho,875,1440,30,900,30,0,25,1440,1670238072813,1024,2,48000,-16,experiment,1,odd,MacIntel,tiger,71983,24,24,24,,70702,22,71233,71900,56917,24,20932,25100,40000,72034,72596,24,71948,72034,ExPsyLing2022_Class1,16,12270,18,animal,yes,1024
89,89,677,677,black,no,block3,3,Mozilla,Netscape,5.0 (Macintosh),psycho,psycho,psycho,0,semi-scrambled,uniform,1,1,f,18,0,0,0,18,18,0,0,18,18,18,0,0,0,0,18,18,0,0,18,18,18,05-11-22,05-11-22,12:00:53,Mon Dec 05 2022 12:00:53 GMT+0100 (Central European Standard Time),The main experiment item,yes,0,0,/Users/ethan/Documents/GitHub/OpenSesame/Class1,0,0,0,no,mono,no,18,no,white,no,no,768,1005,3.6.1,psycho,psycho,8,osweb,1.4.11,1,mohrousm,268,,,0,f,,f,f,f,a,f,601,,20898,4159,2204,9661,601,2,psycho,875,1440,30,900,30,0,25,1440,1670238072813,1024,2,48000,-16,experiment,1,odd,MacIntel,mushroom,73866,24,24,24,,72598,22,73131,73783,56917,24,20932,25100,40000,73914,74533,24,73834,73914,ExPsyLing2022_Class1,17,12871,19,fruit_veg,yes,1024
90,90,673,673,black,no,block3,3,Mozilla,Netscape,5.0 (Macintosh),psycho,psycho,psycho,0,identical,uniform,1,1,a,19,0,0,0,19,19,0,0,19,19,19,0,0,0,0,19,19,0,0,19,19,19,05-11-22,05-11-22,12:00:53,Mon Dec 05 2022 12:00:53 GMT+0100 (Central European Standard Time),The main experiment item,yes,0,0,/Users/ethan/Documents/GitHub/OpenSesame/Class1,0,0,0,no,mono,no,18,no,white,no,no,768,1005,3.6.1,psycho,psycho,8,osweb,1.4.11,1,antelope,268,,,0,a,,f,f,f,a,a,587,,20898,4159,2204,9661,587,2,psycho,875,1440,30,900,30,0,25,1440,1670238072813,1024,2,48000,-16,experiment,1,odd,MacIntel,antelope,75782,24,24,24,,74536,22,75064,75716,56917,24,20932,25100,40000,75829,76432,24,75750,75829,ExPsyLing2022_Class1,18,13458,20,animal,yes,1024
90,90,674,674,black,no,block3,3,Mozilla,Netscape,5.0 (Macintosh),psycho,psycho,psycho,0,fully-scrambled,uniform,1,1,f,20,0,0,0,20,20,0,0,20,20,20,0,0,0,0,20,20,0,0,20,20,20,05-11-22,05-11-22,12:00:53,Mon Dec 05 2022 12:00:53 GMT+0100 (Central European Standard Time),The main experiment item,yes,0,0,/Users/ethan/Documents/GitHub/OpenSesame/Class1,0,0,0,no,mono,no,18,no,white,no,no,768,1005,3.6.1,psycho,psycho,7,osweb,1.4.11,1,urbarbh,268,,,0,f,,f,f,f,a,f,689,,20898,4159,2204,9661,689,2,psycho,875,1440,30,900,30,0,25,1440,1670238072813,1024,2,48000,-16,experiment,1,odd,MacIntel,rhubarb,77700,24,24,24,,76434,22,76965,77632,56917,24,20932,25100,40000,77748,78448,24,77667,77748,ExPsyLing2022_Class1,19,14147,21,fruit_veg,yes,1024
86,86,668,668,black,no,block3,3,Mozilla,Netscape,5.0 (Macintosh),psycho,psycho,psycho,0,semi-scrambled,uniform,0,0,f,21,0,0,0,21,21,0,0,21,21,21,0,0,0,0,21,21,0,0,21,21,21,05-11-22,05-11-22,12:00:53,Mon Dec 05 2022 12:00:53 GMT+0100 (Central European Standard Time),The main experiment item,yes,0,0,/Users/ethan/Documents/GitHub/OpenSesame/Class1,0,0,0,no,mono,no,18,no,white,no,no,768,1005,3.6.1,psycho,psycho,5,osweb,1.4.11,1,giala,268,,,0,a,,f,f,f,a,a,539,,20898,4159,2204,9661,539,2,psycho,875,1440,30,900,30,0,25,1440,1670238072813,1024,2,48000,-16,experiment,1,odd,MacIntel,galia,79715,24,24,24,,78451,22,78979,79633,56917,24,20932,25100,40000,79750,80298,24,79682,79750,ExPsyLing2022_Class1,19,14686,22,fruit_veg,yes,1024
87,87,686,686,black,no,block3,3,Mozilla,Netscape,5.0 (Macintosh),psycho,psycho,psycho,0,fully-scrambled,uniform,1,1,f,22,0,0,0,22,22,0,0,22,22,22,0,0,0,0,22,22,0,0,22,22,22,05-11-22,05-11-22,12:00:53,Mon Dec 05 2022 12:00:53 GMT+0100 (Central European Standard Time),The main experiment item,yes,0,0,/Users/ethan/Documents/GitHub/OpenSesame/Class1,0,0,0,no,mono,no,18,no,white,no,no,768,1005,3.6.1,psycho,psycho,6,osweb,1.4.11,1,toatop,268,,,0,f,,f,f,f,a,f,1083,,20898,4159,2204,9661,1083,2,psycho,875,1440,30,900,30,0,25,1440,1670238072813,1024,2,48000,-16,experiment,1,odd,MacIntel,potato,81566,24,24,24,,78451,22,80829,81483,80300,24,20932,25100,40000,81617,82717,24,81533,81617,ExPsyLing2022_Class1,20,15769,23,fruit_veg,yes,1024
88,88,683,683,black,no,block3,3,Mozilla,Netscape,5.0 (Macintosh),psycho,psycho,psycho,0,semi-scrambled,uniform,1,1,a,23,0,0,0,23,23,0,0,23,23,23,0,0,0,0,23,23,0,0,23,23,23,05-11-22,05-11-22,12:00:53,Mon Dec 05 2022 12:00:53 GMT+0100 (Central European Standard Time),The main experiment item,yes,0,0,/Users/ethan/Documents/GitHub/OpenSesame/Class1,0,0,0,no,mono,no,18,no,white,no,no,768,1005,3.6.1,psycho,psycho,8,osweb,1.4.11,1,ttosorie,268,,,0,a,,f,f,f,a,a,611,,20898,4159,2204,9661,611,2,psycho,875,1440,30,900,30,0,25,1440,1670238072813,1024,2,48000,-16,experiment,1,odd,MacIntel,tortoise,83983,24,24,24,,82718,22,83246,83899,80300,24,20932,25100,40000,84032,84647,24,83934,84032,ExPsyLing2022_Class1,21,16380,24,animal,yes,1024
88,88,682,682,black,no,block3,3,Mozilla,Netscape,5.0 (Macintosh),psycho,psycho,psycho,0,semi-scrambled,uniform,1,1,a,24,0,0,0,24,24,0,0,24,24,24,0,0,0,0,24,24,0,0,24,24,24,05-11-22,05-11-22,12:00:53,Mon Dec 05 2022 12:00:53 GMT+0100 (Central European Standard Time),The main experiment item,yes,0,0,/Users/ethan/Documents/GitHub/OpenSesame/Class1,0,0,0,no,mono,no,18,no,white,no,no,768,1005,3.6.1,psycho,psycho,6,osweb,1.4.11,1,cgaour,268,,,0,a,,f,f,f,a,a,676,,20898,4159,2204,9661,676,2,psycho,875,1440,30,900,30,0,25,1440,1670238072813,1024,2,48000,-16,experiment,1,odd,MacIntel,cougar,85882,24,24,24,,84648,22,85163,85815,80300,24,20932,25100,40000,85916,86597,24,85850,85916,ExPsyLing2022_Class1,22,17056,25,animal,yes,1024
88,88,680,680,black,no,block3,3,Mozilla,Netscape,5.0 (Macintosh),psycho,psycho,psycho,0,identical,uniform,1,1,f,25,0,0,0,25,25,0,0,25,25,25,0,0,0,0,25,25,0,0,25,25,25,05-11-22,05-11-22,12:00:53,Mon Dec 05 2022 12:00:53 GMT+0100 (Central European Standard Time),The main experiment item,yes,0,0,/Users/ethan/Documents/GitHub/OpenSesame/Class1,0,0,0,no,mono,no,18,no,white,no,no,768,1005,3.6.1,psycho,psycho,5,osweb,1.4.11,1,prune,268,,,0,f,,f,f,f,a,f,633,,20898,4159,2204,9661,633,2,psycho,875,1440,30,900,30,0,25,1440,1670238072813,1024,2,48000,-16,experiment,1,odd,MacIntel,prune,87850,24,24,24,,86598,22,87117,87782,80300,24,20932,25100,40000,87900,88548,24,87816,87900,ExPsyLing2022_Class1,23,17689,26,fruit_veg,yes,1024
89,89,678,678,black,no,block3,3,Mozilla,Netscape,5.0 (Macintosh),psycho,psycho,psycho,0,identical,uniform,1,1,a,26,0,0,0,26,26,0,0,26,26,26,0,0,0,0,26,26,0,0,26,26,26,05-11-22,05-11-22,12:00:53,Mon Dec 05 2022 12:00:53 GMT+0100 (Central European Standard Time),The main experiment item,yes,0,0,/Users/ethan/Documents/GitHub/OpenSesame/Class1,0,0,0,no,mono,no,18,no,white,no,no,768,1005,3.6.1,psycho,psycho,7,osweb,1.4.11,1,raccoon,268,,,0,a,,f,f,f,a,a,605,,20898,4159,2204,9661,605,2,psycho,875,1440,30,900,30,0,25,1440,1670238072813,1024,2,48000,-16,experiment,1,odd,MacIntel,raccoon,89817,24,24,24,,88551,22,89077,89733,80300,24,20932,25100,40000,89863,90479,24,89784,89863,ExPsyLing2022_Class1,24,18294,27,animal,yes,1024
89,89,677,677,black,no,block3,3,Mozilla,Netscape,5.0 (Macintosh),psycho,psycho,psycho,0,semi-scrambled,uniform,1,1,f,27,0,0,0,27,27,0,0,27,27,27,0,0,0,0,27,27,0,0,27,27,27,05-11-22,05-11-22,12:00:53,Mon Dec 05 2022 12:00:53 GMT+0100 (Central European Standard Time),The main experiment item,yes,0,0,/Users/ethan/Documents/GitHub/OpenSesame/Class1,0,0,0,no,mono,no,18,no,white,no,no,768,1005,3.6.1,psycho,psycho,7,osweb,1.4.11,1,aocpirt,268,,,0,f,,f,f,f,a,f,659,,20898,4159,2204,9661,659,2,psycho,875,1440,30,900,30,0,25,1440,1670238072813,1024,2,48000,-16,experiment,1,odd,MacIntel,apricot,91733,24,24,24,,90481,22,91014,91666,80300,24,20932,25100,40000,91782,92448,24,91700,91782,ExPsyLing2022_Class1,25,18953,28,fruit_veg,yes,1024
90,90,677,677,black,no,block3,3,Mozilla,Netscape,5.0 (Macintosh),psycho,psycho,psycho,0,fully-scrambled,uniform,1,1,f,28,0,0,0,28,28,0,0,28,28,28,0,0,0,0,28,28,0,0,28,28,28,05-11-22,05-11-22,12:00:53,Mon Dec 05 2022 12:00:53 GMT+0100 (Central European Standard Time),The main experiment item,yes,0,0,/Users/ethan/Documents/GitHub/OpenSesame/Class1,0,0,0,no,mono,no,18,no,white,no,no,768,1005,3.6.1,psycho,psycho,8,osweb,1.4.11,1,toroetbe,268,,,0,f,,f,f,f,a,f,666,,20898,4159,2204,9661,666,2,psycho,875,1440,30,900,30,0,25,1440,1670238072813,1024,2,48000,-16,experiment,1,odd,MacIntel,beetroot,93716,24,24,24,,92451,22,92977,93633,80300,24,20932,25100,40000,93764,94431,24,93681,93764,ExPsyLing2022_Class1,26,19619,29,fruit_veg,yes,1024
90,90,675,675,black,no,block3,3,Mozilla,Netscape,5.0 (Macintosh),psycho,psycho,psycho,0,identical,uniform,1,1,a,29,0,0,0,29,29,0,0,29,29,29,0,0,0,0,29,29,0,0,29,29,29,05-11-22,05-11-22,12:00:53,Mon Dec 05 2022 12:00:53 GMT+0100 (Central European Standard Time),The main experiment item,yes,0,0,/Users/ethan/Documents/GitHub/OpenSesame/Class1,0,0,0,no,mono,no,18,no,white,no,no,768,1005,3.6.1,psycho,psycho,7,osweb,1.4.11,1,dolphin,268,,,0,a,,f,f,f,a,a,626,,20898,4159,2204,9661,626,2,psycho,875,1440,30,900,30,0,25,1440,1670238072813,1024,2,48000,-16,experiment,1,odd,MacIntel,dolphin,95699,24,24,24,,94433,22,94964,95632,80300,24,20932,25100,40000,95750,96382,24,95667,95750,ExPsyLing2022_Class1,27,20245,30,animal,yes,1024
90,90,678,678,black,no,block3,3,Mozilla,Netscape,5.0 (Macintosh),psycho,psycho,psycho,0,semi-scrambled,uniform,1,1,f,30,0,0,0,30,30,0,0,30,30,30,0,0,0,0,30,30,0,0,30,30,30,05-11-22,05-11-22,12:00:53,Mon Dec 05 2022 12:00:53 GMT+0100 (Central European Standard Time),The main experiment item,yes,0,0,/Users/ethan/Documents/GitHub/OpenSesame/Class1,0,0,0,no,mono,no,18,no,white,no,no,768,1005,3.6.1,psycho,psycho,6,osweb,1.4.11,1,ppeepr,268,,,0,f,,f,f,f,a,f,763,,20898,4159,2204,9661,763,2,psycho,875,1440,30,900,30,0,25,1440,1670238072813,1024,2,48000,-16,experiment,1,odd,MacIntel,pepper,97649,24,24,24,,96384,22,96909,97567,80300,24,20932,25100,40000,97697,98463,24,97617,97697,ExPsyLing2022_Class1,28,21008,31,fruit_veg,yes,1024
91,91,678,678,black,no,block3,3,Mozilla,Netscape,5.0 (Macintosh),psycho,psycho,psycho,0,semi-scrambled,uniform,1,1,f,31,0,0,0,31,31,0,0,31,31,31,0,0,0,0,31,31,0,0,31,31,31,05-11-22,05-11-22,12:00:53,Mon Dec 05 2022 12:00:53 GMT+0100 (Central European Standard Time),The main experiment item,yes,0,0,/Users/ethan/Documents/GitHub/OpenSesame/Class1,0,0,0,no,mono,no,18,no,white,no,no,768,1005,3.6.1,psycho,psycho,8,osweb,1.4.11,1,eangglpt,268,,,0,f,,f,f,f,a,f,703,,20898,4159,2204,9661,703,2,psycho,875,1440,30,900,30,0,25,1440,1670238072813,1024,2,48000,-16,experiment,1,odd,MacIntel,eggplant,99716,24,24,24,,98464,22,98979,99633,80300,24,20932,25100,40000,99752,100464,24,99680,99752,ExPsyLing2022_Class1,29,21711,32,fruit_veg,yes,1024
91,91,683,683,black,no,block3,3,Mozilla,Netscape,5.0 (Macintosh),psycho,psycho,psycho,0,fully-scrambled,uniform,1,1,a,32,0,0,0,32,32,0,0,32,32,32,0,0,0,0,32,32,0,0,32,32,32,05-11-22,05-11-22,12:00:53,Mon Dec 05 2022 12:00:53 GMT+0100 (Central European Standard Time),The main experiment item,yes,0,0,/Users/ethan/Documents/GitHub/OpenSesame/Class1,0,0,0,no,mono,no,18,no,white,no,no,768,1005,3.6.1,psycho,psycho,4,osweb,1.4.11,1,lcfa,268,,,0,a,,f,f,f,a,a,827,,20898,4159,2204,9661,827,2,psycho,875,1440,30,900,30,0,25,1440,1670238072813,1024,2,48000,-16,experiment,1,odd,MacIntel,calf,101732,24,24,24,,100467,22,100996,101649,80300,24,20932,25100,40000,101767,102599,24,101700,101767,ExPsyLing2022_Class1,30,22538,33,animal,yes,1024
91,91,678,678,black,no,block3,3,Mozilla,Netscape,5.0 (Macintosh),psycho,psycho,psycho,0,identical,uniform,1,1,a,33,0,0,0,33,33,0,0,33,33,33,0,0,0,0,33,33,0,0,33,33,33,05-11-22,05-11-22,12:00:53,Mon Dec 05 2022 12:00:53 GMT+0100 (Central European Standard Time),The main experiment item,yes,0,0,/Users/ethan/Documents/GitHub/OpenSesame/Class1,0,0,0,no,mono,no,18,no,white,no,no,768,1005,3.6.1,psycho,psycho,6,osweb,1.4.11,1,jaguar,268,,,0,a,,f,f,f,a,a,500,,20898,4159,2204,9661,500,2,psycho,875,1440,30,900,30,0,25,1440,1670238072813,1024,2,48000,-16,experiment,1,odd,MacIntel,jaguar,103865,24,24,24,,102601,22,103128,103782,80300,24,20932,25100,40000,103916,104432,24,103830,103916,ExPsyLing2022_Class1,31,23038,34,animal,yes,1024
91,91,677,677,black,no,block3,3,Mozilla,Netscape,5.0 (Macintosh),psycho,psycho,psycho,0,fully-scrambled,uniform,1,1,f,34,0,0,0,34,34,0,0,34,34,34,0,0,0,0,34,34,0,0,34,34,34,05-11-22,05-11-22,12:00:53,Mon Dec 05 2022 12:00:53 GMT+0100 (Central European Standard Time),The main experiment item,yes,0,0,/Users/ethan/Documents/GitHub/OpenSesame/Class1,0,0,0,no,mono,no,18,no,white,no,no,768,1005,3.6.1,psycho,psycho,4,osweb,1.4.11,1,epra,268,,,0,f,,f,f,f,a,f,670,,20898,4159,2204,9661,670,2,psycho,875,1440,30,900,30,0,25,1440,1670238072813,1024,2,48000,-16,experiment,1,odd,MacIntel,pear,105680,24,24,24,,104434,22,104961,105615,80300,24,20932,25100,40000,105717,106399,24,105648,105716,ExPsyLing2022_Class1,32,23708,35,fruit_veg,yes,1024
92,92,676,676,black,no,block3,3,Mozilla,Netscape,5.0 (Macintosh),psycho,psycho,psycho,0,semi-scrambled,uniform,1,1,f,35,0,0,0,35,35,0,0,35,35,35,0,0,0,0,35,35,0,0,35,35,35,05-11-22,05-11-22,12:00:53,Mon Dec 05 2022 12:00:53 GMT+0100 (Central European Standard Time),The main experiment item,yes,0,0,/Users/ethan/Documents/GitHub/OpenSesame/Class1,0,0,0,no,mono,no,18,no,white,no,no,768,1005,3.6.1,psycho,psycho,8,osweb,1.4.11,1,cekicaph,268,,,0,f,,f,f,f,a,f,613,,20898,4159,2204,9661,613,2,psycho,875,1440,30,900,30,0,25,1440,1670238072813,1024,2,48000,-16,experiment,1,odd,MacIntel,chickpea,107664,24,24,24,,106400,22,106929,107581,80300,24,20932,25100,40000,107698,108314,24,107632,107698,ExPsyLing2022_Class1,33,24321,36,fruit_veg,yes,1024
92,92,672,672,black,no,block3,3,Mozilla,Netscape,5.0 (Macintosh),psycho,psycho,psycho,0,fully-scrambled,uniform,1,1,a,36,0,0,0,36,36,0,0,36,36,36,0,0,0,0,36,36,0,0,36,36,36,05-11-22,05-11-22,12:00:53,Mon Dec 05 2022 12:00:53 GMT+0100 (Central European Standard Time),The main experiment item,yes,0,0,/Users/ethan/Documents/GitHub/OpenSesame/Class1,0,0,0,no,mono,no,18,no,white,no,no,768,1005,3.6.1,psycho,psycho,6,osweb,1.4.11,1,bmotwa,268,,,0,a,,f,f,f,a,a,552,,20898,4159,2204,9661,552,2,psycho,875,1440,30,900,30,0,25,1440,1670238072813,1024,2,48000,-16,experiment,1,odd,MacIntel,wombat,109582,24,24,24,,108316,22,108844,109499,80300,24,20932,25100,40000,109616,110180,24,109550,109616,ExPsyLing2022_Class1,34,24873,37,animal,yes,1024
92,92,669,669,black,no,block3,3,Mozilla,Netscape,5.0 (Macintosh),psycho,psycho,psycho,0,fully-scrambled,uniform,1,1,f,37,0,0,0,37,37,0,0,37,37,37,0,0,0,0,37,37,0,0,37,37,37,05-11-22,05-11-22,12:00:53,Mon Dec 05 2022 12:00:53 GMT+0100 (Central European Standard Time),The main experiment item,yes,0,0,/Users/ethan/Documents/GitHub/OpenSesame/Class1,0,0,0,no,mono,no,18,no,white,no,no,768,1005,3.6.1,psycho,psycho,6,osweb,1.4.11,1,struci,268,,,0,f,,f,f,f,a,f,536,,20898,4159,2204,9661,536,2,psycho,875,1440,30,900,30,0,25,1440,1670238072813,1024,2,48000,-16,experiment,1,odd,MacIntel,citrus,111450,24,24,24,,110182,22,110713,111366,80300,24,20932,25100,40000,111499,112048,24,111416,111499,ExPsyLing2022_Class1,35,25409,38,fruit_veg,yes,1024
92,92,667,667,black,no,block3,3,Mozilla,Netscape,5.0 (Macintosh),psycho,psycho,psycho,0,fully-scrambled,uniform,1,1,a,38,0,0,0,38,38,0,0,38,38,38,0,0,0,0,38,38,0,0,38,38,38,05-11-22,05-11-22,12:00:53,Mon Dec 05 2022 12:00:53 GMT+0100 (Central European Standard Time),The main experiment item,yes,0,0,/Users/ethan/Documents/GitHub/OpenSesame/Class1,0,0,0,no,mono,no,18,no,white,no,no,768,1005,3.6.1,psycho,psycho,7,osweb,1.4.11,1,rhtamse,268,,,0,a,,f,f,f,a,a,613,,20898,4159,2204,9661,613,2,psycho,875,1440,30,900,30,0,25,1440,1670238072813,1024,2,48000,-16,experiment,1,odd,MacIntel,hamster,113300,24,24,24,,112050,22,112576,113231,80300,24,20932,25100,40000,113333,113948,24,113266,113333,ExPsyLing2022_Class1,36,26022,39,animal,yes,1024
93,93,664,664,black,no,block3,3,Mozilla,Netscape,5.0 (Macintosh),psycho,psycho,psycho,0,fully-scrambled,uniform,1,1,a,39,0,0,0,39,39,0,0,39,39,39,0,0,0,0,39,39,0,0,39,39,39,05-11-22,05-11-22,12:00:53,Mon Dec 05 2022 12:00:53 GMT+0100 (Central European Standard Time),The main experiment item,yes,0,0,/Users/ethan/Documents/GitHub/OpenSesame/Class1,0,0,0,no,mono,no,18,no,white,no,no,768,1005,3.6.1,psycho,psycho,5,osweb,1.4.11,1,rhseo,268,,,0,a,,f,f,f,a,a,554,,20898,4159,2204,9661,554,2,psycho,875,1440,30,900,30,0,25,1440,1670238072813,1024,2,48000,-16,experiment,1,odd,MacIntel,horse,115216,24,24,24,,113949,22,114479,115133,80300,24,20932,25100,40000,115250,115815,24,115183,115250,ExPsyLing2022_Class1,37,26576,40,animal,yes,1024
93,93,663,663,black,no,block3,3,Mozilla,Netscape,5.0 (Macintosh),psycho,psycho,psycho,0,fully-scrambled,uniform,1,1,f,40,0,0,0,40,40,0,0,40,40,40,0,0,0,0,40,40,0,0,40,40,40,05-11-22,05-11-22,12:00:53,Mon Dec 05 2022 12:00:53 GMT+0100 (Central European Standard Time),The main experiment item,yes,0,0,/Users/ethan/Documents/GitHub/OpenSesame/Class1,0,0,0,no,mono,no,18,no,white,no,no,768,1005,3.6.1,psycho,psycho,7,osweb,1.4.11,1,oacvdoa,268,,,0,f,f,f,f,f,a,f,615,2252,20898,4159,2204,9661,615,2,psycho,875,1440,30,900,30,0,25,1440,1670238072813,1024,2,48000,-16,experiment,1,odd,MacIntel,avocado,119350,24,24,24,116347,115817,22,118614,119265,80300,24,20932,25100,40000,119397,120015,24,119316,119397,ExPsyLing2022_Class1,38,27191,41,fruit_veg,yes,1024
93,93,662,662,black,no,block3,3,Mozilla,Netscape,5.0 (Macintosh),psycho,psycho,psycho,0,semi-scrambled,uniform,1,1,a,41,0,0,0,41,41,0,0,41,41,41,0,0,0,0,41,41,0,0,41,41,41,05-11-22,05-11-22,12:00:53,Mon Dec 05 2022 12:00:53 GMT+0100 (Central European Standard Time),The main experiment item,yes,0,0,/Users/ethan/Documents/GitHub/OpenSesame/Class1,0,0,0,no,mono,no,18,no,white,no,no,768,1005,3.6.1,psycho,psycho,7,osweb,1.4.11,1,bluaffo,268,,,0,a,f,f,f,f,a,a,594,2252,20898,4159,2204,9661,594,2,psycho,875,1440,30,900,30,0,25,1440,1670238072813,1024,2,48000,-16,experiment,1,odd,MacIntel,buffalo,121300,24,24,24,116347,120017,22,120545,121217,80300,24,20932,25100,40000,121333,121931,24,121264,121333,ExPsyLing2022_Class1,39,27785,42,animal,yes,1024
93,93,658,658,black,no,block3,3,Mozilla,Netscape,5.0 (Macintosh),psycho,psycho,psycho,0,semi-scrambled,uniform,1,1,f,42,0,0,0,42,42,0,0,42,42,42,0,0,0,0,42,42,0,0,42,42,42,05-11-22,05-11-22,12:00:53,Mon Dec 05 2022 12:00:53 GMT+0100 (Central European Standard Time),The main experiment item,yes,0,0,/Users/ethan/Documents/GitHub/OpenSesame/Class1,0,0,0,no,mono,no,18,no,white,no,no,768,1005,3.6.1,psycho,psycho,6,osweb,1.4.11,1,crhery,268,,,0,f,f,f,f,f,a,f,520,2252,20898,4159,2204,9661,520,2,psycho,875,1440,30,900,30,0,25,1440,1670238072813,1024,2,48000,-16,experiment,1,odd,MacIntel,cherry,123183,24,24,24,116347,121933,22,122462,123115,80300,24,20932,25100,40000,123234,123764,24,123149,123234,ExPsyLing2022_Class1,40,28305,43,fruit_veg,yes,1024
93,93,655,655,black,no,block3,3,Mozilla,Netscape,5.0 (Macintosh),psycho,psycho,psycho,0,fully-scrambled,uniform,1,1,f,43,0,0,0,43,43,0,0,43,43,43,0,0,0,0,43,43,0,0,43,43,43,05-11-22,05-11-22,12:00:53,Mon Dec 05 2022 12:00:53 GMT+0100 (Central European Standard Time),The main experiment item,yes,0,0,/Users/ethan/Documents/GitHub/OpenSesame/Class1,0,0,0,no,mono,no,18,no,white,no,no,768,1005,3.6.1,psycho,psycho,6,osweb,1.4.11,1,aglrci,268,,,0,f,f,f,f,f,a,f,507,2252,20898,4159,2204,9661,507,2,psycho,875,1440,30,900,30,0,25,1440,1670238072813,1024,2,48000,-16,experiment,1,odd,MacIntel,garlic,125033,24,24,24,116347,123766,22,124297,124950,80300,24,20932,25100,40000,125066,125583,24,124999,125066,ExPsyLing2022_Class1,41,28812,44,fruit_veg,yes,1024
93,93,655,655,black,no,block3,3,Mozilla,Netscape,5.0 (Macintosh),psycho,psycho,psycho,0,identical,uniform,1,1,a,44,0,0,0,44,44,0,0,44,44,44,0,0,0,0,44,44,0,0,44,44,44,05-11-22,05-11-22,12:00:53,Mon Dec 05 2022 12:00:53 GMT+0100 (Central European Standard Time),The main experiment item,yes,0,0,/Users/ethan/Documents/GitHub/OpenSesame/Class1,0,0,0,no,mono,no,18,no,white,no,no,768,1005,3.6.1,psycho,psycho,6,osweb,1.4.11,1,beaver,268,,,0,a,f,f,f,f,a,a,673,2252,20898,4159,2204,9661,673,2,psycho,875,1440,30,900,30,0,25,1440,1670238072813,1024,2,48000,-16,experiment,1,odd,MacIntel,beaver,126849,24,24,24,116347,125584,22,126112,126766,80300,24,20932,25100,40000,126883,127565,24,126816,126883,ExPsyLing2022_Class1,42,29485,45,animal,yes,1024
93,93,651,651,black,no,block3,3,Mozilla,Netscape,5.0 (Macintosh),psycho,psycho,psycho,0,identical,uniform,1,1,f,45,0,0,0,45,45,0,0,45,45,45,0,0,0,0,45,45,0,0,45,45,45,05-11-22,05-11-22,12:00:53,Mon Dec 05 2022 12:00:53 GMT+0100 (Central European Standard Time),The main experiment item,yes,0,0,/Users/ethan/Documents/GitHub/OpenSesame/Class1,0,0,0,no,mono,no,18,no,white,no,no,768,1005,3.6.1,psycho,psycho,4,osweb,1.4.11,1,plum,268,,,0,f,f,f,f,f,a,f,450,2252,20898,4159,2204,9661,450,2,psycho,875,1440,30,900,30,0,25,1440,1670238072813,1024,2,48000,-16,experiment,1,odd,MacIntel,plum,128833,24,24,24,116347,127566,22,128097,128750,80300,24,20932,25100,40000,128883,129348,24,128783,128883,ExPsyLing2022_Class1,43,29935,46,fruit_veg,yes,1024
94,94,649,649,black,no,block3,3,Mozilla,Netscape,5.0 (Macintosh),psycho,psycho,psycho,0,semi-scrambled,uniform,1,1,f,46,0,0,0,46,46,0,0,46,46,46,0,0,0,0,46,46,0,0,46,46,46,05-11-22,05-11-22,12:00:53,Mon Dec 05 2022 12:00:53 GMT+0100 (Central European Standard Time),The main experiment item,yes,0,0,/Users/ethan/Documents/GitHub/OpenSesame/Class1,0,0,0,no,mono,no,18,no,white,no,no,768,1005,3.6.1,psycho,psycho,4,osweb,1.4.11,1,cron,268,,,0,f,f,f,f,f,a,f,579,2252,20898,4159,2204,9661,579,2,psycho,875,1440,30,900,30,0,25,1440,1670238072813,1024,2,48000,-16,experiment,1,odd,MacIntel,corn,130633,24,24,24,116347,129351,22,129879,130533,80300,24,20932,25100,40000,130685,131282,24,130584,130684,ExPsyLing2022_Class1,44,30514,47,fruit_veg,yes,1024
92,92,647,647,black,no,block3,3,Mozilla,Netscape,5.0 (Macintosh),psycho,psycho,psycho,0,identical,uniform,0,0,f,47,0,0,0,47,47,0,0,47,47,47,0,0,0,0,47,47,0,0,47,47,47,05-11-22,05-11-22,12:00:53,Mon Dec 05 2022 12:00:53 GMT+0100 (Central European Standard Time),The main experiment item,yes,0,0,/Users/ethan/Documents/GitHub/OpenSesame/Class1,0,0,0,no,mono,no,18,no,white,no,no,768,1005,3.6.1,psycho,psycho,6,osweb,1.4.11,1,carrot,268,,,0,a,f,f,f,f,a,a,534,2252,20898,4159,2204,9661,534,2,psycho,875,1440,30,900,30,0,25,1440,1670238072813,1024,2,48000,-16,experiment,1,odd,MacIntel,carrot,132566,24,24,24,116347,131285,22,131824,132485,80300,24,20932,25100,40000,132600,133148,24,132532,132600,ExPsyLing2022_Class1,44,31048,48,fruit_veg,yes,1024
92,92,649,649,black,no,block3,3,Mozilla,Netscape,5.0 (Macintosh),psycho,psycho,psycho,0,semi-scrambled,uniform,1,1,a,48,0,0,0,48,48,0,0,48,48,48,0,0,0,0,48,48,0,0,48,48,48,05-11-22,05-11-22,12:00:53,Mon Dec 05 2022 12:00:53 GMT+0100 (Central European Standard Time),The main experiment item,yes,0,0,/Users/ethan/Documents/GitHub/OpenSesame/Class1,0,0,0,no,mono,no,18,no,white,no,no,768,1005,3.6.1,psycho,psycho,4,osweb,1.4.11,1,blul,268,,,0,a,f,f,f,f,a,a,752,2252,20898,4159,2204,9661,752,2,psycho,875,1440,30,900,30,0,25,1440,1670238072813,1024,2,48000,-16,experiment,1,odd,MacIntel,bull,134434,24,24,24,116347,131285,22,133686,134348,133152,24,20932,25100,40000,134484,135249,24,134382,134484,ExPsyLing2022_Class1,45,31800,49,animal,yes,1024
90,90,649,649,black,no,block3,3,Mozilla,Netscape,5.0 (Macintosh),psycho,psycho,psycho,0,fully-scrambled,uniform,0,0,f,49,0,0,0,49,49,0,0,49,49,49,0,0,0,0,49,49,0,0,49,49,49,05-11-22,05-11-22,12:00:53,Mon Dec 05 2022 12:00:53 GMT+0100 (Central European Standard Time),The main experiment item,yes,0,0,/Users/ethan/Documents/GitHub/OpenSesame/Class1,0,0,0,no,mono,no,18,no,white,no,no,768,1005,3.6.1,psycho,psycho,4,osweb,1.4.11,1,taed,268,,,0,a,f,f,f,f,a,a,668,2252,20898,4159,2204,9661,668,2,psycho,875,1440,30,900,30,0,25,1440,1670238072813,1024,2,48000,-16,experiment,1,odd,MacIntel,date,136518,24,24,24,116347,135252,22,135781,136448,133152,24,20932,25100,40000,136566,137247,24,136483,136565,ExPsyLing2022_Class1,45,32468,50,fruit_veg,yes,1024
90,90,657,657,black,no,block3,3,Mozilla,Netscape,5.0 (Macintosh),psycho,psycho,psycho,0,identical,uniform,1,1,f,50,0,0,0,50,50,0,0,50,50,50,0,0,0,0,50,50,0,0,50,50,50,05-11-22,05-11-22,12:00:53,Mon Dec 05 2022 12:00:53 GMT+0100 (Central European Standard Time),The main experiment item,yes,0,0,/Users/ethan/Documents/GitHub/OpenSesame/Class1,0,0,0,no,mono,no,18,no,white,no,no,768,1005,3.6.1,psycho,psycho,5,osweb,1.4.11,1,grape,268,,,0,f,f,f,f,f,a,f,1034,2252,20898,4159,2204,9661,1034,2,psycho,875,1440,30,900,30,0,25,1440,1670238072813,1024,2,48000,-16,experiment,1,odd,MacIntel,grape,138514,24,24,24,116347,135252,22,137781,138433,137250,24,20932,25100,40000,138549,139597,24,138481,138548,ExPsyLing2022_Class1,46,33502,51,fruit_veg,yes,1024
90,90,657,657,black,no,block3,3,Mozilla,Netscape,5.0 (Macintosh),psycho,psycho,psycho,0,fully-scrambled,uniform,1,1,a,51,0,0,0,51,51,0,0,51,51,51,0,0,0,0,51,51,0,0,51,51,51,05-11-22,05-11-22,12:00:53,Mon Dec 05 2022 12:00:53 GMT+0100 (Central European Standard Time),The main experiment item,yes,0,0,/Users/ethan/Documents/GitHub/OpenSesame/Class1,0,0,0,no,mono,no,18,no,white,no,no,768,1005,3.6.1,psycho,psycho,7,osweb,1.4.11,1,nieugnp,268,,,0,a,f,f,f,f,a,a,668,2252,20898,4159,2204,9661,668,2,psycho,875,1440,30,900,30,0,25,1440,1670238072813,1024,2,48000,-16,experiment,1,odd,MacIntel,penguin,140866,24,24,24,116347,139599,22,140130,140783,137250,24,20932,25100,40000,140900,141583,24,140833,140900,ExPsyLing2022_Class1,47,34170,52,animal,yes,1024
91,91,658,658,black,no,block3,3,Mozilla,Netscape,5.0 (Macintosh),psycho,psycho,psycho,0,identical,uniform,1,1,a,52,0,0,0,52,52,0,0,52,52,52,0,0,0,0,52,52,0,0,52,52,52,05-11-22,05-11-22,12:00:53,Mon Dec 05 2022 12:00:53 GMT+0100 (Central European Standard Time),The main experiment item,yes,0,0,/Users/ethan/Documents/GitHub/OpenSesame/Class1,0,0,0,no,mono,no,18,no,white,no,no,768,1005,3.6.1,psycho,psycho,5,osweb,1.4.11,1,rhino,268,,,0,a,f,f,f,f,a,a,729,2252,20898,4159,2204,9661,729,2,psycho,875,1440,30,900,30,0,25,1440,1670238072813,1024,2,48000,-16,experiment,1,odd,MacIntel,rhino,142850,24,24,24,116347,141586,22,142114,142780,137250,24,20932,25100,40000,142899,143631,24,142816,142899,ExPsyLing2022_Class1,48,34899,53,animal,yes,1024
91,91,661,661,black,no,block3,3,Mozilla,Netscape,5.0 (Macintosh),psycho,psycho,psycho,0,fully-scrambled,uniform,1,1,f,53,0,0,0,53,53,0,0,53,53,53,0,0,0,0,53,53,0,0,53,53,53,05-11-22,05-11-22,12:00:53,Mon Dec 05 2022 12:00:53 GMT+0100 (Central European Standard Time),The main experiment item,yes,0,0,/Users/ethan/Documents/GitHub/OpenSesame/Class1,0,0,0,no,mono,no,18,no,white,no,no,768,1005,3.6.1,psycho,psycho,8,osweb,1.4.11,1,liscanlo,268,,,0,f,f,f,f,f,a,f,812,2252,20898,4159,2204,9661,812,2,psycho,875,1440,30,900,30,0,25,1440,1670238072813,1024,2,48000,-16,experiment,1,odd,MacIntel,scallion,144914,24,24,24,116347,143633,22,144164,144833,137250,24,20932,25100,40000,144949,145764,24,144883,144948,ExPsyLing2022_Class1,49,35711,54,fruit_veg,yes,1024
91,91,659,659,black,no,block3,3,Mozilla,Netscape,5.0 (Macintosh),psycho,psycho,psycho,0,identical,uniform,1,1,f,54,0,0,0,54,54,0,0,54,54,54,0,0,0,0,54,54,0,0,54,54,54,05-11-22,05-11-22,12:00:53,Mon Dec 05 2022 12:00:53 GMT+0100 (Central European Standard Time),The main experiment item,yes,0,0,/Users/ethan/Documents/GitHub/OpenSesame/Class1,0,0,0,no,mono,no,18,no,white,no,no,768,1005,3.6.1,psycho,psycho,6,osweb,1.4.11,1,orange,268,,,0,f,f,f,f,f,a,f,515,2252,20898,4159,2204,9661,515,2,psycho,875,1440,30,900,30,0,25,1440,1670238072813,1024,2,48000,-16,experiment,1,odd,MacIntel,orange,147033,24,24,24,116347,145767,22,146296,146950,137250,24,20932,25100,40000,147080,147599,24,146999,147080,ExPsyLing2022_Class1,50,36226,55,fruit_veg,yes,1024
91,91,656,656,black,no,block3,3,Mozilla,Netscape,5.0 (Macintosh),psycho,psycho,psycho,0,semi-scrambled,uniform,1,1,f,55,0,0,0,55,55,0,0,55,55,55,0,0,0,0,55,55,0,0,55,55,55,05-11-22,05-11-22,12:00:53,Mon Dec 05 2022 12:00:53 GMT+0100 (Central European Standard Time),The main experiment item,yes,0,0,/Users/ethan/Documents/GitHub/OpenSesame/Class1,0,0,0,no,mono,no,18,no,white,no,no,768,1005,3.6.1,psycho,psycho,4,osweb,1.4.11,1,baen,268,,,0,f,f,f,f,f,a,f,523,2252,20898,4159,2204,9661,523,2,psycho,875,1440,30,900,30,0,25,1440,1670238072813,1024,2,48000,-16,experiment,1,odd,MacIntel,bean,148882,24,24,24,116347,147601,22,148126,148785,137250,24,20932,25100,40000,148933,149463,24,148834,148933,ExPsyLing2022_Class1,51,36749,56,fruit_veg,yes,1024
91,91,658,658,black,no,block3,3,Mozilla,Netscape,5.0 (Macintosh),psycho,psycho,psycho,0,semi-scrambled,uniform,1,1,a,56,0,0,0,56,56,0,0,56,56,56,0,0,0,0,56,56,0,0,56,56,56,05-11-22,05-11-22,12:00:53,Mon Dec 05 2022 12:00:53 GMT+0100 (Central European Standard Time),The main experiment item,yes,0,0,/Users/ethan/Documents/GitHub/OpenSesame/Class1,0,0,0,no,mono,no,18,no,white,no,no,768,1005,3.6.1,psycho,psycho,8,osweb,1.4.11,1,cunhpmik,268,,,0,a,f,f,f,f,a,a,785,2252,20898,4159,2204,9661,785,2,psycho,875,1440,30,900,30,0,25,1440,1670238072813,1024,2,48000,-16,experiment,1,odd,MacIntel,chipmunk,150750,24,24,24,116347,149466,22,149999,150667,137250,24,20932,25100,40000,150801,151598,24,150715,150801,ExPsyLing2022_Class1,52,37534,57,animal,yes,1024
91,91,660,660,black,no,block3,3,Mozilla,Netscape,5.0 (Macintosh),psycho,psycho,psycho,0,fully-scrambled,uniform,1,1,a,57,0,0,0,57,57,0,0,57,57,57,0,0,0,0,57,57,0,0,57,57,57,05-11-22,05-11-22,12:00:53,Mon Dec 05 2022 12:00:53 GMT+0100 (Central European Standard Time),The main experiment item,yes,0,0,/Users/ethan/Documents/GitHub/OpenSesame/Class1,0,0,0,no,mono,no,18,no,white,no,no,768,1005,3.6.1,psycho,psycho,4,osweb,1.4.11,1,bmal,268,,,0,a,f,f,f,f,a,a,747,2252,20898,4159,2204,9661,747,2,psycho,875,1440,30,900,30,0,25,1440,1670238072813,1024,2,48000,-16,experiment,1,odd,MacIntel,lamb,152864,24,24,24,116347,151599,22,152129,152782,137250,24,20932,25100,40000,152899,153648,24,152832,152899,ExPsyLing2022_Class1,53,38281,58,animal,yes,1024
92,92,659,659,black,no,block3,3,Mozilla,Netscape,5.0 (Macintosh),psycho,psycho,psycho,0,semi-scrambled,uniform,1,1,a,58,0,0,0,58,58,0,0,58,58,58,0,0,0,0,58,58,0,0,58,58,58,05-11-22,05-11-22,12:00:53,Mon Dec 05 2022 12:00:53 GMT+0100 (Central European Standard Time),The main experiment item,yes,0,0,/Users/ethan/Documents/GitHub/OpenSesame/Class1,0,0,0,no,mono,no,18,no,white,no,no,768,1005,3.6.1,psycho,psycho,8,osweb,1.4.11,1,knroaoga,268,,,0,a,f,f,f,f,a,a,584,2252,20898,4159,2204,9661,584,2,psycho,875,1440,30,900,30,0,25,1440,1670238072813,1024,2,48000,-16,experiment,1,odd,MacIntel,kangaroo,154917,24,24,24,116347,153650,22,154180,154833,137250,24,20932,25100,40000,154967,155565,24,154882,154967,ExPsyLing2022_Class1,54,38865,59,animal,yes,1024
92,92,657,657,black,no,block3,3,Mozilla,Netscape,5.0 (Macintosh),psycho,psycho,psycho,0,identical,uniform,1,1,f,59,0,0,0,59,59,0,0,59,59,59,0,0,0,0,59,59,0,0,59,59,59,05-11-22,05-11-22,12:00:53,Mon Dec 05 2022 12:00:53 GMT+0100 (Central European Standard Time),The main experiment item,yes,0,0,/Users/ethan/Documents/GitHub/OpenSesame/Class1,0,0,0,no,mono,no,18,no,white,no,no,768,1005,3.6.1,psycho,psycho,7,osweb,1.4.11,1,coconut,268,,,0,f,f,f,f,f,a,f,583,2252,20898,4159,2204,9661,583,2,psycho,875,1440,30,900,30,0,25,1440,1670238072813,1024,2,48000,-16,experiment,1,odd,MacIntel,coconut,156833,24,24,24,116347,155567,22,156097,156750,137250,24,20932,25100,40000,156867,157464,24,156800,156867,ExPsyLing2022_Class1,55,39448,60,fruit_veg,yes,1024
92,92,655,655,black,no,block3,3,Mozilla,Netscape,5.0 (Macintosh),psycho,psycho,psycho,0,identical,uniform,1,1,f,60,0,0,0,60,60,0,0,60,60,60,0,0,0,0,60,60,0,0,60,60,60,05-11-22,05-11-22,12:00:53,Mon Dec 05 2022 12:00:53 GMT+0100 (Central European Standard Time),The main experiment item,yes,0,0,/Users/ethan/Documents/GitHub/OpenSesame/Class1,0,0,0,no,mono,no,18,no,white,no,no,768,1005,3.6.1,psycho,psycho,7,osweb,1.4.11,1,pumpkin,268,,,0,f,f,f,f,f,a,f,480,2252,20898,4159,2204,9661,480,2,psycho,875,1440,30,900,30,0,25,1440,1670238072813,1024,2,48000,-16,experiment,1,odd,MacIntel,pumpkin,158715,24,24,24,116347,157465,22,157995,158648,137250,24,20932,25100,40000,158766,159249,24,158682,158766,ExPsyLing2022_Class1,56,39928,61,fruit_veg,yes,1024
92,92,659,659,black,no,block3,3,Mozilla,Netscape,5.0 (Macintosh),psycho,psycho,psycho,0,fully-scrambled,uniform,1,1,f,61,0,0,0,61,61,0,0,61,61,61,0,0,0,0,61,61,0,0,61,61,61,05-11-22,05-11-22,12:00:53,Mon Dec 05 2022 12:00:53 GMT+0100 (Central European Standard Time),The main experiment item,yes,0,0,/Users/ethan/Documents/GitHub/OpenSesame/Class1,0,0,0,no,mono,no,18,no,white,no,no,768,1005,3.6.1,psycho,psycho,7,osweb,1.4.11,1,isaprpn,268,,,0,f,f,f,f,f,a,f,920,2252,20898,4159,2204,9661,920,2,psycho,875,1440,30,900,30,0,25,1440,1670238072813,1024,2,48000,-16,experiment,1,odd,MacIntel,parsnip,160533,24,24,24,116347,159251,22,159779,160432,137250,24,20932,25100,40000,160584,161513,24,160483,160584,ExPsyLing2022_Class1,57,40848,62,fruit_veg,yes,1024
92,92,657,657,black,no,block3,3,Mozilla,Netscape,5.0 (Macintosh),psycho,psycho,psycho,0,semi-scrambled,uniform,1,1,f,62,0,0,0,62,62,0,0,62,62,62,0,0,0,0,62,62,0,0,62,62,62,05-11-22,05-11-22,12:00:53,Mon Dec 05 2022 12:00:53 GMT+0100 (Central European Standard Time),The main experiment item,yes,0,0,/Users/ethan/Documents/GitHub/OpenSesame/Class1,0,0,0,no,mono,no,18,no,white,no,no,768,1005,3.6.1,psycho,psycho,7,osweb,1.4.11,1,lteucte,268,,,0,f,f,f,f,f,a,f,554,2252,20898,4159,2204,9661,554,2,psycho,875,1440,30,900,30,0,25,1440,1670238072813,1024,2,48000,-16,experiment,1,odd,MacIntel,lettuce,162750,24,24,24,116347,161515,22,162029,162683,137250,24,20932,25100,40000,162799,163363,24,162717,162799,ExPsyLing2022_Class1,58,41402,63,fruit_veg,yes,1024
92,92,656,656,black,no,block3,3,Mozilla,Netscape,5.0 (Macintosh),psycho,psycho,psycho,0,identical,uniform,1,1,a,63,0,0,0,63,63,0,0,63,63,63,0,0,0,0,63,63,0,0,63,63,63,05-11-22,05-11-22,12:00:53,Mon Dec 05 2022 12:00:53 GMT+0100 (Central European Standard Time),The main experiment item,yes,0,0,/Users/ethan/Documents/GitHub/OpenSesame/Class1,0,0,0,no,mono,no,18,no,white,no,no,768,1005,3.6.1,psycho,psycho,5,osweb,1.4.11,1,koala,268,,,0,a,f,f,f,f,a,a,586,2252,20898,4159,2204,9661,586,2,psycho,875,1440,30,900,30,0,25,1440,1670238072813,1024,2,48000,-16,experiment,1,odd,MacIntel,koala,164635,24,24,24,116347,163366,22,163898,164549,137250,24,20932,25100,40000,164680,165281,24,164600,164680,ExPsyLing2022_Class1,59,41988,64,animal,yes,1024
92,92,656,656,black,no,block3,3,Mozilla,Netscape,5.0 (Macintosh),psycho,psycho,psycho,0,fully-scrambled,uniform,1,1,a,64,0,0,0,64,64,0,0,64,64,64,0,0,0,0,64,64,0,0,64,64,64,05-11-22,05-11-22,12:00:53,Mon Dec 05 2022 12:00:53 GMT+0100 (Central European Standard Time),The main experiment item,yes,0,0,/Users/ethan/Documents/GitHub/OpenSesame/Class1,0,0,0,no,mono,no,18,no,white,no,no,768,1005,3.6.1,psycho,psycho,6,osweb,1.4.11,1,oynked,268,,,0,a,f,f,f,f,a,a,657,2252,20898,4159,2204,9661,657,2,psycho,875,1440,30,900,30,0,25,1440,1670238072813,1024,2,48000,-16,experiment,1,odd,MacIntel,donkey,166547,24,24,24,116347,165284,22,165811,166464,137250,24,20932,25100,40000,166582,167247,24,166500,166582,ExPsyLing2022_Class1,60,42645,65,animal,yes,1024
92,92,655,655,black,no,block3,3,Mozilla,Netscape,5.0 (Macintosh),psycho,psycho,psycho,0,semi-scrambled,uniform,1,1,f,65,0,0,0,65,65,0,0,65,65,65,0,0,0,0,65,65,0,0,65,65,65,05-11-22,05-11-22,12:00:53,Mon Dec 05 2022 12:00:53 GMT+0100 (Central European Standard Time),The main experiment item,yes,0,0,/Users/ethan/Documents/GitHub/OpenSesame/Class1,0,0,0,no,mono,no,18,no,white,no,no,768,1005,3.6.1,psycho,psycho,5,osweb,1.4.11,1,paceh,268,,,0,f,f,f,f,f,a,f,587,2252,20898,4159,2204,9661,587,2,psycho,875,1440,30,900,30,0,25,1440,1670238072813,1024,2,48000,-16,experiment,1,odd,MacIntel,peach,168517,24,24,24,116347,167249,22,167778,168433,137250,24,20932,25100,40000,168567,169163,24,168467,168567,ExPsyLing2022_Class1,61,43232,66,fruit_veg,yes,1024
93,93,661,661,black,no,block3,3,Mozilla,Netscape,5.0 (Macintosh),psycho,psycho,psycho,0,identical,uniform,1,1,a,66,0,0,0,66,66,0,0,66,66,66,0,0,0,0,66,66,0,0,66,66,66,05-11-22,05-11-22,12:00:53,Mon Dec 05 2022 12:00:53 GMT+0100 (Central European Standard Time),The main experiment item,yes,0,0,/Users/ethan/Documents/GitHub/OpenSesame/Class1,0,0,0,no,mono,no,18,no,white,no,no,768,1005,3.6.1,psycho,psycho,8,osweb,1.4.11,1,platypus,268,,,0,a,f,f,f,f,a,a,1075,2252,20898,4159,2204,9661,1075,2,psycho,875,1440,30,900,30,0,25,1440,1670238072813,1024,2,48000,-16,experiment,1,odd,MacIntel,platypus,170433,24,24,24,116347,169165,22,169694,170350,137250,24,20932,25100,40000,170467,171550,24,170399,170467,ExPsyLing2022_Class1,62,44307,67,animal,yes,1024
93,93,660,660,black,no,block3,3,Mozilla,Netscape,5.0 (Macintosh),psycho,psycho,psycho,0,identical,uniform,1,1,a,67,0,0,0,67,67,0,0,67,67,67,0,0,0,0,67,67,0,0,67,67,67,05-11-22,05-11-22,12:00:53,Mon Dec 05 2022 12:00:53 GMT+0100 (Central European Standard Time),The main experiment item,yes,0,0,/Users/ethan/Documents/GitHub/OpenSesame/Class1,0,0,0,no,mono,no,18,no,white,no,no,768,1005,3.6.1,psycho,psycho,4,osweb,1.4.11,1,lion,268,,,0,a,f,f,f,f,a,a,574,2252,20898,4159,2204,9661,574,2,psycho,875,1440,30,900,30,0,25,1440,1670238072813,1024,2,48000,-16,experiment,1,odd,MacIntel,lion,172799,24,24,24,116347,171552,22,172077,172732,137250,24,20932,25100,40000,172848,173430,24,172766,172848,ExPsyLing2022_Class1,63,44881,68,animal,yes,1024
93,93,660,660,black,no,block3,3,Mozilla,Netscape,5.0 (Macintosh),psycho,psycho,psycho,0,semi-scrambled,uniform,1,1,a,68,0,0,0,68,68,0,0,68,68,68,0,0,0,0,68,68,0,0,68,68,68,05-11-22,05-11-22,12:00:53,Mon Dec 05 2022 12:00:53 GMT+0100 (Central European Standard Time),The main experiment item,yes,0,0,/Users/ethan/Documents/GitHub/OpenSesame/Class1,0,0,0,no,mono,no,18,no,white,no,no,768,1005,3.6.1,psycho,psycho,5,osweb,1.4.11,1,msoue,268,,,0,a,f,f,f,f,a,a,628,2252,20898,4159,2204,9661,628,2,psycho,875,1440,30,900,30,0,25,1440,1670238072813,1024,2,48000,-16,experiment,1,odd,MacIntel,mouse,174683,24,24,24,116347,173432,22,173962,174614,137250,24,20932,25100,40000,174717,175348,24,174650,174717,ExPsyLing2022_Class1,64,45509,69,animal,yes,1024
93,93,659,659,black,no,block3,3,Mozilla,Netscape,5.0 (Macintosh),psycho,psycho,psycho,0,identical,uniform,1,1,a,69,0,0,0,69,69,0,0,69,69,69,0,0,0,0,69,69,0,0,69,69,69,05-11-22,05-11-22,12:00:53,Mon Dec 05 2022 12:00:53 GMT+0100 (Central European Standard Time),The main experiment item,yes,0,0,/Users/ethan/Documents/GitHub/OpenSesame/Class1,0,0,0,no,mono,no,18,no,white,no,no,768,1005,3.6.1,psycho,psycho,6,osweb,1.4.11,1,walrus,268,,,0,a,f,f,f,f,a,a,637,2252,20898,4159,2204,9661,637,2,psycho,875,1440,30,900,30,0,25,1440,1670238072813,1024,2,48000,-16,experiment,1,odd,MacIntel,walrus,176598,24,24,24,116347,175350,22,175878,176532,137250,24,20932,25100,40000,176634,177278,24,176566,176634,ExPsyLing2022_Class1,65,46146,70,animal,yes,1024
93,93,660,660,black,no,block3,3,Mozilla,Netscape,5.0 (Macintosh),psycho,psycho,psycho,0,identical,uniform,1,1,f,70,0,0,0,70,70,0,0,70,70,70,0,0,0,0,70,70,0,0,70,70,70,05-11-22,05-11-22,12:00:53,Mon Dec 05 2022 12:00:53 GMT+0100 (Central European Standard Time),The main experiment item,yes,0,0,/Users/ethan/Documents/GitHub/OpenSesame/Class1,0,0,0,no,mono,no,18,no,white,no,no,768,1005,3.6.1,psycho,psycho,6,osweb,1.4.11,1,squash,268,,,0,f,f,f,f,f,a,f,719,2252,20898,4159,2204,9661,719,2,psycho,875,1440,30,900,30,0,25,1440,1670238072813,1024,2,48000,-16,experiment,1,odd,MacIntel,squash,178533,24,24,24,116347,177280,22,177793,178451,137250,24,20932,25100,40000,178581,179314,24,178500,178581,ExPsyLing2022_Class1,66,46865,71,fruit_veg,yes,1024
93,93,662,662,black,no,block3,3,Mozilla,Netscape,5.0 (Macintosh),psycho,psycho,psycho,0,fully-scrambled,uniform,1,1,f,71,0,0,0,71,71,0,0,71,71,71,0,0,0,0,71,71,0,0,71,71,71,05-11-22,05-11-22,12:00:53,Mon Dec 05 2022 12:00:53 GMT+0100 (Central European Standard Time),The main experiment item,yes,0,0,/Users/ethan/Documents/GitHub/OpenSesame/Class1,0,0,0,no,mono,no,18,no,white,no,no,768,1005,3.6.1,psycho,psycho,4,osweb,1.4.11,1,lkea,268,,,0,f,f,f,f,f,a,f,789,2252,20898,4159,2204,9661,789,2,psycho,875,1440,30,900,30,0,25,1440,1670238072813,1024,2,48000,-16,experiment,1,odd,MacIntel,kale,180583,24,24,24,116347,179316,22,179830,180500,137250,24,20932,25100,40000,180631,181433,24,180549,180631,ExPsyLing2022_Class1,67,47654,72,fruit_veg,yes,1024
93,93,662,662,black,no,block3,3,Mozilla,Netscape,5.0 (Macintosh),psycho,psycho,psycho,0,identical,uniform,1,1,f,72,0,0,0,72,72,0,0,72,72,72,0,0,0,0,72,72,0,0,72,72,72,05-11-22,05-11-22,12:00:53,Mon Dec 05 2022 12:00:53 GMT+0100 (Central European Standard Time),The main experiment item,yes,0,0,/Users/ethan/Documents/GitHub/OpenSesame/Class1,0,0,0,no,mono,no,18,no,white,no,no,768,1005,3.6.1,psycho,psycho,8,osweb,1.4.11,1,zucchini,268,,,0,f,f,f,f,f,a,f,670,2252,20898,4159,2204,9661,670,2,psycho,875,1440,30,900,30,0,25,1440,1670238072813,1024,2,48000,-16,experiment,1,odd,MacIntel,zucchini,182698,24,24,24,116347,181435,22,181961,182617,137250,24,20932,25100,40000,182733,183415,24,182665,182733,ExPsyLing2022_Class1,68,48324,73,fruit_veg,yes,1024
93,93,663,663,black,no,block3,3,Mozilla,Netscape,5.0 (Macintosh),psycho,psycho,psycho,0,fully-scrambled,uniform,1,1,a,73,0,0,0,73,73,0,0,73,73,73,0,0,0,0,73,73,0,0,73,73,73,05-11-22,05-11-22,12:00:53,Mon Dec 05 2022 12:00:53 GMT+0100 (Central European Standard Time),The main experiment item,yes,0,0,/Users/ethan/Documents/GitHub/OpenSesame/Class1,0,0,0,no,mono,no,18,no,white,no,no,768,1005,3.6.1,psycho,psycho,8,osweb,1.4.11,1,teneahpl,268,,,0,a,f,f,f,f,a,a,717,2252,20898,4159,2204,9661,717,2,psycho,875,1440,30,900,30,0,25,1440,1670238072813,1024,2,48000,-16,experiment,1,odd,MacIntel,elephant,184683,24,24,24,116347,183416,22,183946,184599,137250,24,20932,25100,40000,184732,185465,24,184647,184732,ExPsyLing2022_Class1,69,49041,74,animal,yes,1024
93,93,663,663,black,no,block3,3,Mozilla,Netscape,5.0 (Macintosh),psycho,psycho,psycho,0,semi-scrambled,uniform,1,1,a,74,0,0,0,74,74,0,0,74,74,74,0,0,0,0,74,74,0,0,74,74,74,05-11-22,05-11-22,12:00:53,Mon Dec 05 2022 12:00:53 GMT+0100 (Central European Standard Time),The main experiment item,yes,0,0,/Users/ethan/Documents/GitHub/OpenSesame/Class1,0,0,0,no,mono,no,18,no,white,no,no,768,1005,3.6.1,psycho,psycho,6,osweb,1.4.11,1,rbiabt,268,,,0,a,f,f,f,f,a,a,698,2252,20898,4159,2204,9661,698,2,psycho,875,1440,30,900,30,0,25,1440,1670238072813,1024,2,48000,-16,experiment,1,odd,MacIntel,rabbit,186733,24,24,24,116347,185466,22,185996,186649,137250,24,20932,25100,40000,186782,187481,24,186684,186782,ExPsyLing2022_Class1,70,49739,75,animal,yes,1024
93,93,661,661,black,no,block3,3,Mozilla,Netscape,5.0 (Macintosh),psycho,psycho,psycho,0,semi-scrambled,uniform,1,1,a,75,0,0,0,75,75,0,0,75,75,75,0,0,0,0,75,75,0,0,75,75,75,05-11-22,05-11-22,12:00:53,Mon Dec 05 2022 12:00:53 GMT+0100 (Central European Standard Time),The main experiment item,yes,0,0,/Users/ethan/Documents/GitHub/OpenSesame/Class1,0,0,0,no,mono,no,18,no,white,no,no,768,1005,3.6.1,psycho,psycho,4,osweb,1.4.11,1,hrae,268,,,0,a,f,f,f,f,a,a,508,2252,20898,4159,2204,9661,508,2,psycho,875,1440,30,900,30,0,25,1440,1670238072813,1024,2,48000,-16,experiment,1,odd,MacIntel,hare,188747,24,24,24,116347,187482,22,188012,188667,137250,24,20932,25100,40000,188782,189298,24,188715,188782,ExPsyLing2022_Class1,71,50247,76,animal,yes,1024
94,94,661,661,black,no,block3,3,Mozilla,Netscape,5.0 (Macintosh),psycho,psycho,psycho,0,identical,uniform,1,1,f,76,0,0,0,76,76,0,0,76,76,76,0,0,0,0,76,76,0,0,76,76,76,05-11-22,05-11-22,12:00:53,Mon Dec 05 2022 12:00:53 GMT+0100 (Central European Standard Time),The main experiment item,yes,0,0,/Users/ethan/Documents/GitHub/OpenSesame/Class1,0,0,0,no,mono,no,18,no,white,no,no,768,1005,3.6.1,psycho,psycho,5,osweb,1.4.11,1,onion,268,,,0,f,f,f,f,f,a,f,621,2252,20898,4159,2204,9661,621,2,psycho,875,1440,30,900,30,0,25,1440,1670238072813,1024,2,48000,-16,experiment,1,odd,MacIntel,onion,190565,24,24,24,116347,189300,22,189829,190483,137250,24,20932,25100,40000,190600,191231,24,190518,190600,ExPsyLing2022_Class1,72,50868,77,fruit_veg,yes,1024
94,94,660,660,black,no,block3,3,Mozilla,Netscape,5.0 (Macintosh),psycho,psycho,psycho,0,semi-scrambled,uniform,1,1,a,77,0,0,0,77,77,0,0,77,77,77,0,0,0,0,77,77,0,0,77,77,77,05-11-22,05-11-22,12:00:53,Mon Dec 05 2022 12:00:53 GMT+0100 (Central European Standard Time),The main experiment item,yes,0,0,/Users/ethan/Documents/GitHub/OpenSesame/Class1,0,0,0,no,mono,no,18,no,white,no,no,768,1005,3.6.1,psycho,psycho,5,osweb,1.4.11,1,cmeal,268,,,0,a,f,f,f,f,a,a,580,2252,20898,4159,2204,9661,580,2,psycho,875,1440,30,900,30,0,25,1440,1670238072813,1024,2,48000,-16,experiment,1,odd,MacIntel,camel,192500,24,24,24,116347,191233,22,191763,192417,137250,24,20932,25100,40000,192550,193132,24,192466,192550,ExPsyLing2022_Class1,73,51448,78,animal,yes,1024
94,94,658,658,black,no,block3,3,Mozilla,Netscape,5.0 (Macintosh),psycho,psycho,psycho,0,identical,uniform,1,1,a,78,0,0,0,78,78,0,0,78,78,78,0,0,0,0,78,78,0,0,78,78,78,05-11-22,05-11-22,12:00:53,Mon Dec 05 2022 12:00:53 GMT+0100 (Central European Standard Time),The main experiment item,yes,0,0,/Users/ethan/Documents/GitHub/OpenSesame/Class1,0,0,0,no,mono,no,18,no,white,no,no,768,1005,3.6.1,psycho,psycho,5,osweb,1.4.11,1,bison,268,,,0,a,f,f,f,f,a,a,544,2252,20898,4159,2204,9661,544,2,psycho,875,1440,30,900,30,0,25,1440,1670238072813,1024,2,48000,-16,experiment,1,odd,MacIntel,bison,194381,24,24,24,116347,193134,22,193661,194316,137250,24,20932,25100,40000,194416,194965,24,194349,194416,ExPsyLing2022_Class1,74,51992,79,animal,yes,1024
94,94,656,656,black,no,block3,3,Mozilla,Netscape,5.0 (Macintosh),psycho,psycho,psycho,0,identical,uniform,1,1,f,79,0,0,0,79,79,0,0,79,79,79,0,0,0,0,79,79,0,0,79,79,79,05-11-22,05-11-22,12:00:53,Mon Dec 05 2022 12:00:53 GMT+0100 (Central European Standard Time),The main experiment item,yes,0,0,/Users/ethan/Documents/GitHub/OpenSesame/Class1,0,0,0,no,mono,no,18,no,white,no,no,768,1005,3.6.1,psycho,psycho,4,osweb,1.4.11,1,pome,268,,,0,f,f,f,f,f,a,f,498,2252,20898,4159,2204,9661,498,2,psycho,875,1440,30,900,30,0,25,1440,1670238072813,1024,2,48000,-16,experiment,1,odd,MacIntel,pome,196249,24,24,24,116347,194966,22,195495,196152,137250,24,20932,25100,40000,196285,196800,24,196202,196284,ExPsyLing2022_Class1,75,52490,80,fruit_veg,yes,1024
94,94,656,656,black,no,block3,3,Mozilla,Netscape,5.0 (Macintosh),psycho,psycho,psycho,0,semi-scrambled,uniform,1,1,f,80,0,0,0,80,80,0,0,80,80,80,0,0,0,0,80,80,0,0,80,80,80,05-11-22,05-11-22,12:00:53,Mon Dec 05 2022 12:00:53 GMT+0100 (Central European Standard Time),The main experiment item,yes,0,0,/Users/ethan/Documents/GitHub/OpenSesame/Class1,0,0,0,no,mono,no,18,no,white,no,no,768,1005,3.6.1,psycho,psycho,7,osweb,1.4.11,1,snpicah,268,,,0,f,f,f,f,f,a,f,653,2252,20898,4159,2204,9661,653,2,psycho,875,1440,30,900,30,0,25,1440,1670238072813,1024,2,48000,-16,experiment,1,odd,MacIntel,spinach,198082,24,24,24,116347,196807,22,197338,197999,137250,24,20932,25100,40000,198116,198780,24,198050,198116,ExPsyLing2022_Class1,76,53143,81,fruit_veg,yes,1024
93,93,655,655,black,no,block3,3,Mozilla,Netscape,5.0 (Macintosh),psycho,psycho,psycho,0,fully-scrambled,uniform,0,0,a,81,0,0,0,81,81,0,0,81,81,81,0,0,0,0,81,81,0,0,81,81,81,05-11-22,05-11-22,12:00:53,Mon Dec 05 2022 12:00:53 GMT+0100 (Central European Standard Time),The main experiment item,yes,0,0,/Users/ethan/Documents/GitHub/OpenSesame/Class1,0,0,0,no,mono,no,18,no,white,no,no,768,1005,3.6.1,psycho,psycho,6,osweb,1.4.11,1,ettlur,268,,,0,f,f,f,f,f,a,f,539,2252,20898,4159,2204,9661,539,2,psycho,875,1440,30,900,30,0,25,1440,1670238072813,1024,2,48000,-16,experiment,1,odd,MacIntel,turtle,200084,24,24,24,116347,198784,22,199318,199983,137250,24,20932,25100,40000,200132,200681,24,200033,200132,ExPsyLing2022_Class1,76,53682,82,animal,yes,1024
93,93,654,654,black,no,block3,3,Mozilla,Netscape,5.0 (Macintosh),psycho,psycho,psycho,0,semi-scrambled,uniform,1,1,a,82,0,0,0,82,82,0,0,82,82,82,0,0,0,0,82,82,0,0,82,82,82,05-11-22,05-11-22,12:00:53,Mon Dec 05 2022 12:00:53 GMT+0100 (Central European Standard Time),The main experiment item,yes,0,0,/Users/ethan/Documents/GitHub/OpenSesame/Class1,0,0,0,no,mono,no,18,no,white,no,no,768,1005,3.6.1,psycho,psycho,4,osweb,1.4.11,1,mnik,268,,,0,a,f,f,f,f,a,a,629,2252,20898,4159,2204,9661,629,2,psycho,875,1440,30,900,30,0,25,1440,1670238072813,1024,2,48000,-16,experiment,1,odd,MacIntel,mink,201984,24,24,24,116347,198784,22,201216,201884,200683,24,20932,25100,40000,202029,202665,24,201934,202029,ExPsyLing2022_Class1,77,54311,83,animal,yes,1024
93,93,654,654,black,no,block3,3,Mozilla,Netscape,5.0 (Macintosh),psycho,psycho,psycho,0,fully-scrambled,uniform,1,1,f,83,0,0,0,83,83,0,0,83,83,83,0,0,0,0,83,83,0,0,83,83,83,05-11-22,05-11-22,12:00:53,Mon Dec 05 2022 12:00:53 GMT+0100 (Central European Standard Time),The main experiment item,yes,0,0,/Users/ethan/Documents/GitHub/OpenSesame/Class1,0,0,0,no,mono,no,18,no,white,no,no,768,1005,3.6.1,psycho,psycho,5,osweb,1.4.11,1,levio,268,,,0,f,f,f,f,f,a,f,649,2252,20898,4159,2204,9661,649,2,psycho,875,1440,30,900,30,0,25,1440,1670238072813,1024,2,48000,-16,experiment,1,odd,MacIntel,olive,203933,24,24,24,116347,202668,22,203197,203851,200683,24,20932,25100,40000,203982,204632,24,203900,203982,ExPsyLing2022_Class1,78,54960,84,fruit_veg,yes,1024
93,93,655,655,black,no,block3,3,Mozilla,Netscape,5.0 (Macintosh),psycho,psycho,psycho,0,semi-scrambled,uniform,1,1,a,84,0,0,0,84,84,0,0,84,84,84,0,0,0,0,84,84,0,0,84,84,84,05-11-22,05-11-22,12:00:53,Mon Dec 05 2022 12:00:53 GMT+0100 (Central European Standard Time),The main experiment item,yes,0,0,/Users/ethan/Documents/GitHub/OpenSesame/Class1,0,0,0,no,mono,no,18,no,white,no,no,768,1005,3.6.1,psycho,psycho,7,osweb,1.4.11,1,oputucs,268,,,0,a,f,f,f,f,a,a,717,2252,20898,4159,2204,9661,717,2,psycho,875,1440,30,900,30,0,25,1440,1670238072813,1024,2,48000,-16,experiment,1,odd,MacIntel,octupus,205916,24,24,24,116347,204634,22,205164,205833,200683,24,20932,25100,40000,205964,206683,24,205883,205964,ExPsyLing2022_Class1,79,55677,85,animal,yes,1024
93,93,656,656,black,no,block3,3,Mozilla,Netscape,5.0 (Macintosh),psycho,psycho,psycho,0,fully-scrambled,uniform,1,1,f,85,0,0,0,85,85,0,0,85,85,85,0,0,0,0,85,85,0,0,85,85,85,05-11-22,05-11-22,12:00:53,Mon Dec 05 2022 12:00:53 GMT+0100 (Central European Standard Time),The main experiment item,yes,0,0,/Users/ethan/Documents/GitHub/OpenSesame/Class1,0,0,0,no,mono,no,18,no,white,no,no,768,1005,3.6.1,psycho,psycho,5,osweb,1.4.11,1,monel,268,,,0,f,f,f,f,f,a,f,701,2252,20898,4159,2204,9661,701,2,psycho,875,1440,30,900,30,0,25,1440,1670238072813,1024,2,48000,-16,experiment,1,odd,MacIntel,lemon,207965,24,24,24,116347,206685,22,207213,207883,200683,24,20932,25100,40000,208001,208715,24,207933,208001,ExPsyLing2022_Class1,80,56378,86,fruit_veg,yes,1024
100,100,1745,1745,black,no,practice,1,Mozilla,Netscape,"5.0 (Macintosh; Intel Mac OS X 10_15_7) AppleWebKit/605.1.15 (KHTML, like Gecko) Version/14.1.2 Safari/605.1.15",psycho,psycho,psycho,0,practice,uniform,1,1,f,0,0,0,0,0,0,0,0,0,0,0,0,0,0,0,0,0,0,0,0,0,0,05-11-22,05-11-22,11:13:21,Mon Dec 05 2022 11:13:21 GMT+0100 (CET),The main experiment item,yes,0,0,/Users/ethan/Documents/GitHub/OpenSesame/Class1,0,0,0,no,mono,no,18,no,white,no,no,768,1003,3.6.1,psycho,psycho,5,osweb,1.4.11,1,#####,268,,,0,f,,f,f,f,,f,1745,,20836,4320,1415,,1745,2,psycho,816,1440,24,900,24,32,25,1440,1670234751112,1024,2,48000,-16,experiment,1,odd,MacIntel,apple,27460,67,67,67,,,52,26708,27376,,67,20912,25244,,27510,29256,67,27425,27509,ExPsyLing2022_Class1,1,1745,1,fruit_veg,yes,1024
100,100,1140,1140,black,no,practice,1,Mozilla,Netscape,"5.0 (Macintosh; Intel Mac OS X 10_15_7) AppleWebKit/605.1.15 (KHTML, like Gecko) Version/14.1.2 Safari/605.1.15",psycho,psycho,psycho,0,practice,uniform,1,1,a,1,0,0,0,1,1,0,0,1,1,1,0,0,0,0,1,1,0,0,1,1,1,05-11-22,05-11-22,11:13:21,Mon Dec 05 2022 11:13:21 GMT+0100 (CET),The main experiment item,yes,0,0,/Users/ethan/Documents/GitHub/OpenSesame/Class1,0,0,0,no,mono,no,18,no,white,no,no,768,1003,3.6.1,psycho,psycho,4,osweb,1.4.11,1,#####,268,,,0,a,,f,f,f,,a,534,,20836,4320,1415,,534,2,psycho,816,1440,24,900,24,32,25,1440,1670234751112,1024,2,48000,-16,experiment,1,odd,MacIntel,wolf,30559,67,67,67,,29262,52,29808,30475,,67,20912,25244,,30609,31156,67,30526,30609,ExPsyLing2022_Class1,2,2279,2,animal,yes,1024
100,100,1007,1007,black,no,practice,1,Mozilla,Netscape,"5.0 (Macintosh; Intel Mac OS X 10_15_7) AppleWebKit/605.1.15 (KHTML, like Gecko) Version/14.1.2 Safari/605.1.15",psycho,psycho,psycho,0,practice,uniform,1,1,f,2,0,0,0,2,2,0,0,2,2,2,0,0,0,0,2,2,0,0,2,2,2,05-11-22,05-11-22,11:13:21,Mon Dec 05 2022 11:13:21 GMT+0100 (CET),The main experiment item,yes,0,0,/Users/ethan/Documents/GitHub/OpenSesame/Class1,0,0,0,no,mono,no,18,no,white,no,no,768,1003,3.6.1,psycho,psycho,5,osweb,1.4.11,1,#####,268,,,0,f,,f,f,f,,f,741,,20836,4320,1415,,741,2,psycho,816,1440,24,900,24,32,25,1440,1670234751112,1024,2,48000,-16,experiment,1,odd,MacIntel,melon,32476,67,67,67,,31160,52,31707,32376,,67,20912,25244,,32526,33274,67,32426,32526,ExPsyLing2022_Class1,3,3020,3,fruit_veg,yes,1024
100,100,1048,1048,black,no,practice,1,Mozilla,Netscape,"5.0 (Macintosh; Intel Mac OS X 10_15_7) AppleWebKit/605.1.15 (KHTML, like Gecko) Version/14.1.2 Safari/605.1.15",psycho,psycho,psycho,0,practice,uniform,1,1,a,3,0,0,0,3,3,0,0,3,3,3,0,0,0,0,3,3,0,0,3,3,3,05-11-22,05-11-22,11:13:21,Mon Dec 05 2022 11:13:21 GMT+0100 (CET),The main experiment item,yes,0,0,/Users/ethan/Documents/GitHub/OpenSesame/Class1,0,0,0,no,mono,no,18,no,white,no,no,768,1003,3.6.1,psycho,psycho,5,osweb,1.4.11,1,#####,268,,,0,a,,f,f,f,,a,1170,,20836,4320,1415,,1170,2,psycho,816,1440,24,900,24,32,25,1440,1670234751112,1024,2,48000,-16,experiment,1,odd,MacIntel,hound,34576,67,67,67,,33277,52,33823,34492,,67,20912,25244,,34626,35808,67,34542,34626,ExPsyLing2022_Class1,4,4190,4,animal,yes,1024
100,100,987,987,black,no,practice,1,Mozilla,Netscape,"5.0 (Macintosh; Intel Mac OS X 10_15_7) AppleWebKit/605.1.15 (KHTML, like Gecko) Version/14.1.2 Safari/605.1.15",psycho,psycho,psycho,0,practice,uniform,1,1,f,4,0,0,0,4,4,0,0,4,4,4,0,0,0,0,4,4,0,0,4,4,4,05-11-22,05-11-22,11:13:21,Mon Dec 05 2022 11:13:21 GMT+0100 (CET),The main experiment item,yes,0,0,/Users/ethan/Documents/GitHub/OpenSesame/Class1,0,0,0,no,mono,no,18,no,white,no,no,768,1003,3.6.1,psycho,psycho,6,osweb,1.4.11,1,#####,268,,,0,f,,f,f,f,,f,747,,20836,4320,1415,,747,2,psycho,816,1440,24,900,24,32,25,1440,1670234751112,1024,2,48000,-16,experiment,1,odd,MacIntel,tomato,37093,67,67,67,,35811,52,36355,37009,,67,20912,25244,,37143,37890,67,37059,37143,ExPsyLing2022_Class1,5,4937,5,fruit_veg,yes,1024
100,100,919,919,black,no,practice,1,Mozilla,Netscape,"5.0 (Macintosh; Intel Mac OS X 10_15_7) AppleWebKit/605.1.15 (KHTML, like Gecko) Version/14.1.2 Safari/605.1.15",psycho,psycho,psycho,0,practice,uniform,1,1,a,5,0,0,0,5,5,0,0,5,5,5,0,0,0,0,5,5,0,0,5,5,5,05-11-22,05-11-22,11:13:21,Mon Dec 05 2022 11:13:21 GMT+0100 (CET),The main experiment item,yes,0,0,/Users/ethan/Documents/GitHub/OpenSesame/Class1,0,0,0,no,mono,no,18,no,white,no,no,768,1003,3.6.1,psycho,psycho,6,osweb,1.4.11,1,#####,268,,,0,a,,f,f,f,,a,579,,20836,4320,1415,,579,2,psycho,816,1440,24,900,24,32,25,1440,1670234751112,1024,2,48000,-16,experiment,1,odd,MacIntel,spider,39193,67,67,67,,37895,52,38439,39095,,67,20912,25244,,39243,39824,67,39145,39242,ExPsyLing2022_Class1,6,5516,6,animal,yes,1024
100,100,931,931,black,no,block1,1,Mozilla,Netscape,"5.0 (Macintosh; Intel Mac OS X 10_15_7) AppleWebKit/605.1.15 (KHTML, like Gecko) Version/14.1.2 Safari/605.1.15",psycho,psycho,psycho,0,fully-scrambled,uniform,1,1,a,6,0,0,0,6,6,0,0,6,6,6,0,0,0,0,6,6,0,0,6,6,6,05-11-22,05-11-22,11:13:21,Mon Dec 05 2022 11:13:21 GMT+0100 (CET),The main experiment item,yes,0,0,/Users/ethan/Documents/GitHub/OpenSesame/Class1,0,0,0,no,mono,no,18,no,white,no,no,768,1003,3.6.1,psycho,psycho,7,osweb,1.4.11,1,inhlpdo,268,,,0,a,,f,f,f,f,a,1001,,20836,4320,1415,885,1001,2,psycho,816,1440,24,900,24,32,25,1440,1670234751112,1024,2,48000,-16,experiment,1,odd,MacIntel,dolphin,42010,67,67,67,,39828,52,41273,41926,,67,20912,25244,40353,42060,43074,67,41976,42059,ExPsyLing2022_Class1,7,6517,7,animal,yes,1024
100,100,912,912,black,no,block1,1,Mozilla,Netscape,"5.0 (Macintosh; Intel Mac OS X 10_15_7) AppleWebKit/605.1.15 (KHTML, like Gecko) Version/14.1.2 Safari/605.1.15",psycho,psycho,psycho,0,semi-scrambled,uniform,1,1,a,7,0,0,0,7,7,0,0,7,7,7,0,0,0,0,7,7,0,0,7,7,7,05-11-22,05-11-22,11:13:21,Mon Dec 05 2022 11:13:21 GMT+0100 (CET),The main experiment item,yes,0,0,/Users/ethan/Documents/GitHub/OpenSesame/Class1,0,0,0,no,mono,no,18,no,white,no,no,768,1003,3.6.1,psycho,psycho,6,osweb,1.4.11,1,tlurte,268,,,0,a,,f,f,f,f,a,781,,20836,4320,1415,885,781,2,psycho,816,1440,24,900,24,32,25,1440,1670234751112,1024,2,48000,-16,experiment,1,odd,MacIntel,turtle,44361,67,67,67,,43078,52,43621,44277,,67,20912,25244,40353,44410,45207,67,44326,44409,ExPsyLing2022_Class1,8,7298,8,animal,yes,1024
100,100,879,879,black,no,block1,1,Mozilla,Netscape,"5.0 (Macintosh; Intel Mac OS X 10_15_7) AppleWebKit/605.1.15 (KHTML, like Gecko) Version/14.1.2 Safari/605.1.15",psycho,psycho,psycho,0,semi-scrambled,uniform,1,1,f,8,0,0,0,8,8,0,0,8,8,8,0,0,0,0,8,8,0,0,8,8,8,05-11-22,05-11-22,11:13:21,Mon Dec 05 2022 11:13:21 GMT+0100 (CET),The main experiment item,yes,0,0,/Users/ethan/Documents/GitHub/OpenSesame/Class1,0,0,0,no,mono,no,18,no,white,no,no,768,1003,3.6.1,psycho,psycho,7,osweb,1.4.11,1,pianrsp,268,,,0,f,,f,f,f,f,f,617,,20836,4320,1415,885,617,2,psycho,816,1440,24,900,24,32,25,1440,1670234751112,1024,2,48000,-16,experiment,1,odd,MacIntel,parsnip,46494,67,67,67,,45211,52,45749,46410,,67,20912,25244,40353,46544,47175,67,46459,46544,ExPsyLing2022_Class1,9,7915,9,fruit_veg,yes,1024
100,100,856,856,black,no,block1,1,Mozilla,Netscape,"5.0 (Macintosh; Intel Mac OS X 10_15_7) AppleWebKit/605.1.15 (KHTML, like Gecko) Version/14.1.2 Safari/605.1.15",psycho,psycho,psycho,0,fully-scrambled,uniform,1,1,f,9,0,0,0,9,9,0,0,9,9,9,0,0,0,0,9,9,0,0,9,9,9,05-11-22,05-11-22,11:13:21,Mon Dec 05 2022 11:13:21 GMT+0100 (CET),The main experiment item,yes,0,0,/Users/ethan/Documents/GitHub/OpenSesame/Class1,0,0,0,no,mono,no,18,no,white,no,no,768,1003,3.6.1,psycho,psycho,8,osweb,1.4.11,1,mcurcube,268,,,0,f,,f,f,f,f,f,649,,20836,4320,1415,885,649,2,psycho,816,1440,24,900,24,32,25,1440,1670234751112,1024,2,48000,-16,experiment,1,odd,MacIntel,cucumber,48461,67,67,67,,47178,52,47721,48376,,67,20912,25244,40353,48510,49174,67,48427,48510,ExPsyLing2022_Class1,10,8564,10,fruit_veg,yes,1024
100,100,838,838,black,no,block1,1,Mozilla,Netscape,"5.0 (Macintosh; Intel Mac OS X 10_15_7) AppleWebKit/605.1.15 (KHTML, like Gecko) Version/14.1.2 Safari/605.1.15",psycho,psycho,psycho,0,identical,uniform,1,1,a,10,0,0,0,10,10,0,0,10,10,10,0,0,0,0,10,10,0,0,10,10,10,05-11-22,05-11-22,11:13:21,Mon Dec 05 2022 11:13:21 GMT+0100 (CET),The main experiment item,yes,0,0,/Users/ethan/Documents/GitHub/OpenSesame/Class1,0,0,0,no,mono,no,18,no,white,no,no,768,1003,3.6.1,psycho,psycho,7,osweb,1.4.11,1,octupus,268,,,0,a,,f,f,f,f,a,652,,20836,4320,1415,885,652,2,psycho,816,1440,24,900,24,32,25,1440,1670234751112,1024,2,48000,-16,experiment,1,odd,MacIntel,octupus,50461,67,67,67,,49177,52,49723,50377,,67,20912,25244,40353,50510,51175,67,50427,50510,ExPsyLing2022_Class1,11,9216,11,animal,yes,1024
100,100,820,820,black,no,block1,1,Mozilla,Netscape,"5.0 (Macintosh; Intel Mac OS X 10_15_7) AppleWebKit/605.1.15 (KHTML, like Gecko) Version/14.1.2 Safari/605.1.15",psycho,psycho,psycho,0,fully-scrambled,uniform,1,1,f,11,0,0,0,11,11,0,0,11,11,11,0,0,0,0,11,11,0,0,11,11,11,05-11-22,05-11-22,11:13:21,Mon Dec 05 2022 11:13:21 GMT+0100 (CET),The main experiment item,yes,0,0,/Users/ethan/Documents/GitHub/OpenSesame/Class1,0,0,0,no,mono,no,18,no,white,no,no,768,1003,3.6.1,psycho,psycho,6,osweb,1.4.11,1,enorag,268,,,0,f,,f,f,f,f,f,624,,20836,4320,1415,885,624,2,psycho,816,1440,24,900,24,32,25,1440,1670234751112,1024,2,48000,-16,experiment,1,odd,MacIntel,orange,52460,67,67,67,,51178,52,51722,52378,,67,20912,25244,40353,52511,53142,67,52427,52511,ExPsyLing2022_Class1,12,9840,12,fruit_veg,yes,1024
100,100,802,802,black,no,block1,1,Mozilla,Netscape,"5.0 (Macintosh; Intel Mac OS X 10_15_7) AppleWebKit/605.1.15 (KHTML, like Gecko) Version/14.1.2 Safari/605.1.15",psycho,psycho,psycho,0,semi-scrambled,uniform,1,1,f,12,0,0,0,12,12,0,0,12,12,12,0,0,0,0,12,12,0,0,12,12,12,05-11-22,05-11-22,11:13:21,Mon Dec 05 2022 11:13:21 GMT+0100 (CET),The main experiment item,yes,0,0,/Users/ethan/Documents/GitHub/OpenSesame/Class1,0,0,0,no,mono,no,18,no,white,no,no,768,1003,3.6.1,psycho,psycho,6,osweb,1.4.11,1,ptatoo,268,,,0,f,,f,f,f,f,f,590,,20836,4320,1415,885,590,2,psycho,816,1440,24,900,24,32,25,1440,1670234751112,1024,2,48000,-16,experiment,1,odd,MacIntel,potato,54428,67,67,67,,53145,52,53689,54343,,67,20912,25244,40353,54477,55075,67,54393,54476,ExPsyLing2022_Class1,13,10430,13,fruit_veg,yes,1024
100,100,786,786,black,no,block1,1,Mozilla,Netscape,"5.0 (Macintosh; Intel Mac OS X 10_15_7) AppleWebKit/605.1.15 (KHTML, like Gecko) Version/14.1.2 Safari/605.1.15",psycho,psycho,psycho,0,identical,uniform,1,1,f,13,0,0,0,13,13,0,0,13,13,13,0,0,0,0,13,13,0,0,13,13,13,05-11-22,05-11-22,11:13:21,Mon Dec 05 2022 11:13:21 GMT+0100 (CET),The main experiment item,yes,0,0,/Users/ethan/Documents/GitHub/OpenSesame/Class1,0,0,0,no,mono,no,18,no,white,no,no,768,1003,3.6.1,psycho,psycho,7,osweb,1.4.11,1,spinach,268,,,0,f,,f,f,f,f,f,576,,20836,4320,1415,885,576,2,psycho,816,1440,24,900,24,32,25,1440,1670234751112,1024,2,48000,-16,experiment,1,odd,MacIntel,spinach,56377,67,67,67,,55078,52,55623,56278,,67,20912,25244,40353,56428,57009,67,56328,56428,ExPsyLing2022_Class1,14,11006,14,fruit_veg,yes,1024
100,100,795,795,black,no,block1,1,Mozilla,Netscape,"5.0 (Macintosh; Intel Mac OS X 10_15_7) AppleWebKit/605.1.15 (KHTML, like Gecko) Version/14.1.2 Safari/605.1.15",psycho,psycho,psycho,0,identical,uniform,1,1,a,14,0,0,0,14,14,0,0,14,14,14,0,0,0,0,14,14,0,0,14,14,14,05-11-22,05-11-22,11:13:21,Mon Dec 05 2022 11:13:21 GMT+0100 (CET),The main experiment item,yes,0,0,/Users/ethan/Documents/GitHub/OpenSesame/Class1,0,0,0,no,mono,no,18,no,white,no,no,768,1003,3.6.1,psycho,psycho,6,osweb,1.4.11,1,cougar,268,,,0,a,,f,f,f,f,a,925,,20836,4320,1415,885,925,2,psycho,816,1440,24,900,24,32,25,1440,1670234751112,1024,2,48000,-16,experiment,1,odd,MacIntel,cougar,58295,67,67,67,,57012,52,57556,58211,,67,20912,25244,40353,58343,59276,67,58261,58343,ExPsyLing2022_Class1,15,11931,15,animal,yes,1024
100,100,791,791,black,no,block1,1,Mozilla,Netscape,"5.0 (Macintosh; Intel Mac OS X 10_15_7) AppleWebKit/605.1.15 (KHTML, like Gecko) Version/14.1.2 Safari/605.1.15",psycho,psycho,psycho,0,fully-scrambled,uniform,1,1,f,15,0,0,0,15,15,0,0,15,15,15,0,0,0,0,15,15,0,0,15,15,15,05-11-22,05-11-22,11:13:21,Mon Dec 05 2022 11:13:21 GMT+0100 (CET),The main experiment item,yes,0,0,/Users/ethan/Documents/GitHub/OpenSesame/Class1,0,0,0,no,mono,no,18,no,white,no,no,768,1003,3.6.1,psycho,psycho,5,osweb,1.4.11,1,eprun,268,,,0,f,,f,f,f,f,f,720,,20836,4320,1415,885,720,2,psycho,816,1440,24,900,24,32,25,1440,1670234751112,1024,2,48000,-16,experiment,1,odd,MacIntel,prune,60562,67,67,67,,59279,52,59823,60478,,67,20912,25244,40353,60612,61342,67,60527,60612,ExPsyLing2022_Class1,16,12651,16,fruit_veg,yes,1024
100,100,791,791,black,no,block1,1,Mozilla,Netscape,"5.0 (Macintosh; Intel Mac OS X 10_15_7) AppleWebKit/605.1.15 (KHTML, like Gecko) Version/14.1.2 Safari/605.1.15",psycho,psycho,psycho,0,identical,uniform,1,1,a,16,0,0,0,16,16,0,0,16,16,16,0,0,0,0,16,16,0,0,16,16,16,05-11-22,05-11-22,11:13:21,Mon Dec 05 2022 11:13:21 GMT+0100 (CET),The main experiment item,yes,0,0,/Users/ethan/Documents/GitHub/OpenSesame/Class1,0,0,0,no,mono,no,18,no,white,no,no,768,1003,3.6.1,psycho,psycho,8,osweb,1.4.11,1,chipmunk,268,,,0,a,,f,f,f,f,a,791,,20836,4320,1415,885,791,2,psycho,816,1440,24,900,24,32,25,1440,1670234751112,1024,2,48000,-16,experiment,1,odd,MacIntel,chipmunk,62629,67,67,67,,61346,52,61889,62546,,67,20912,25244,40353,62679,63475,67,62595,62678,ExPsyLing2022_Class1,17,13442,17,animal,yes,1024
100,100,781,781,black,no,block1,1,Mozilla,Netscape,"5.0 (Macintosh; Intel Mac OS X 10_15_7) AppleWebKit/605.1.15 (KHTML, like Gecko) Version/14.1.2 Safari/605.1.15",psycho,psycho,psycho,0,fully-scrambled,uniform,1,1,f,17,0,0,0,17,17,0,0,17,17,17,0,0,0,0,17,17,0,0,17,17,17,05-11-22,05-11-22,11:13:21,Mon Dec 05 2022 11:13:21 GMT+0100 (CET),The main experiment item,yes,0,0,/Users/ethan/Documents/GitHub/OpenSesame/Class1,0,0,0,no,mono,no,18,no,white,no,no,768,1003,3.6.1,psycho,psycho,6,osweb,1.4.11,1,qsashu,268,,,0,f,,f,f,f,f,f,620,,20836,4320,1415,885,620,2,psycho,816,1440,24,900,24,32,25,1440,1670234751112,1024,2,48000,-16,experiment,1,odd,MacIntel,squash,64779,67,67,67,,63479,52,64023,64679,,67,20912,25244,40353,64829,65460,67,64729,64828,ExPsyLing2022_Class1,18,14062,18,fruit_veg,yes,1024
100,100,767,767,black,no,block1,1,Mozilla,Netscape,"5.0 (Macintosh; Intel Mac OS X 10_15_7) AppleWebKit/605.1.15 (KHTML, like Gecko) Version/14.1.2 Safari/605.1.15",psycho,psycho,psycho,0,identical,uniform,1,1,f,18,0,0,0,18,18,0,0,18,18,18,0,0,0,0,18,18,0,0,18,18,18,05-11-22,05-11-22,11:13:21,Mon Dec 05 2022 11:13:21 GMT+0100 (CET),The main experiment item,yes,0,0,/Users/ethan/Documents/GitHub/OpenSesame/Class1,0,0,0,no,mono,no,18,no,white,no,no,768,1003,3.6.1,psycho,psycho,6,osweb,1.4.11,1,pepper,268,,,0,f,,f,f,f,f,f,505,,20836,4320,1415,885,505,2,psycho,816,1440,24,900,24,32,25,1440,1670234751112,1024,2,48000,-16,experiment,1,odd,MacIntel,pepper,66745,67,67,67,,65463,52,66006,66662,,67,20912,25244,40353,66795,67310,67,66712,66795,ExPsyLing2022_Class1,19,14567,19,fruit_veg,yes,1024
100,100,762,762,black,no,block1,1,Mozilla,Netscape,"5.0 (Macintosh; Intel Mac OS X 10_15_7) AppleWebKit/605.1.15 (KHTML, like Gecko) Version/14.1.2 Safari/605.1.15",psycho,psycho,psycho,0,identical,uniform,1,1,f,19,0,0,0,19,19,0,0,19,19,19,0,0,0,0,19,19,0,0,19,19,19,05-11-22,05-11-22,11:13:21,Mon Dec 05 2022 11:13:21 GMT+0100 (CET),The main experiment item,yes,0,0,/Users/ethan/Documents/GitHub/OpenSesame/Class1,0,0,0,no,mono,no,18,no,white,no,no,768,1003,3.6.1,psycho,psycho,4,osweb,1.4.11,1,corn,268,,,0,f,,f,f,f,f,f,679,,20836,4320,1415,885,679,2,psycho,816,1440,24,900,24,32,25,1440,1670234751112,1024,2,48000,-16,experiment,1,odd,MacIntel,corn,68612,67,67,67,,67313,52,67862,68529,,67,20912,25244,40353,68662,69342,67,68578,68662,ExPsyLing2022_Class1,20,15246,20,fruit_veg,yes,1024
100,100,751,751,black,no,block1,1,Mozilla,Netscape,"5.0 (Macintosh; Intel Mac OS X 10_15_7) AppleWebKit/605.1.15 (KHTML, like Gecko) Version/14.1.2 Safari/605.1.15",psycho,psycho,psycho,0,identical,uniform,1,1,a,20,0,0,0,20,20,0,0,20,20,20,0,0,0,0,20,20,0,0,20,20,20,05-11-22,05-11-22,11:13:21,Mon Dec 05 2022 11:13:21 GMT+0100 (CET),The main experiment item,yes,0,0,/Users/ethan/Documents/GitHub/OpenSesame/Class1,0,0,0,no,mono,no,18,no,white,no,no,768,1003,3.6.1,psycho,psycho,5,osweb,1.4.11,1,mouse,268,,,0,a,,f,f,f,f,a,517,,20836,4320,1415,885,517,2,psycho,816,1440,24,900,24,32,25,1440,1670234751112,1024,2,48000,-16,experiment,1,odd,MacIntel,mouse,70629,67,67,67,,69353,52,69891,70545,,67,20912,25244,40353,70679,71210,67,70595,70678,ExPsyLing2022_Class1,21,15763,21,animal,yes,1024
100,100,742,742,black,no,block1,1,Mozilla,Netscape,"5.0 (Macintosh; Intel Mac OS X 10_15_7) AppleWebKit/605.1.15 (KHTML, like Gecko) Version/14.1.2 Safari/605.1.15",psycho,psycho,psycho,0,semi-scrambled,uniform,1,1,f,21,0,0,0,21,21,0,0,21,21,21,0,0,0,0,21,21,0,0,21,21,21,05-11-22,05-11-22,11:13:21,Mon Dec 05 2022 11:13:21 GMT+0100 (CET),The main experiment item,yes,0,0,/Users/ethan/Documents/GitHub/OpenSesame/Class1,0,0,0,no,mono,no,18,no,white,no,no,768,1003,3.6.1,psycho,psycho,5,osweb,1.4.11,1,oivle,268,,,0,f,,f,f,f,f,f,562,,20836,4320,1415,885,562,2,psycho,816,1440,24,900,24,32,25,1440,1670234751112,1024,2,48000,-16,experiment,1,odd,MacIntel,olive,72496,67,67,67,,71214,52,71756,72413,,67,20912,25244,40353,72546,73109,67,72462,72545,ExPsyLing2022_Class1,22,16325,22,fruit_veg,yes,1024
100,100,736,736,black,no,block1,1,Mozilla,Netscape,"5.0 (Macintosh; Intel Mac OS X 10_15_7) AppleWebKit/605.1.15 (KHTML, like Gecko) Version/14.1.2 Safari/605.1.15",psycho,psycho,psycho,0,fully-scrambled,uniform,1,1,a,22,0,0,0,22,22,0,0,22,22,22,0,0,0,0,22,22,0,0,22,22,22,05-11-22,05-11-22,11:13:21,Mon Dec 05 2022 11:13:21 GMT+0100 (CET),The main experiment item,yes,0,0,/Users/ethan/Documents/GitHub/OpenSesame/Class1,0,0,0,no,mono,no,18,no,white,no,no,768,1003,3.6.1,psycho,psycho,5,osweb,1.4.11,1,noibs,268,,,0,a,,f,f,f,f,a,597,,20836,4320,1415,885,597,2,psycho,816,1440,24,900,24,32,25,1440,1670234751112,1024,2,48000,-16,experiment,1,odd,MacIntel,bison,74396,67,67,67,,73117,52,73656,74312,,67,20912,25244,40353,74446,75043,67,74362,74446,ExPsyLing2022_Class1,23,16922,23,animal,yes,1024
100,100,732,732,black,no,block1,1,Mozilla,Netscape,"5.0 (Macintosh; Intel Mac OS X 10_15_7) AppleWebKit/605.1.15 (KHTML, like Gecko) Version/14.1.2 Safari/605.1.15",psycho,psycho,psycho,0,semi-scrambled,uniform,1,1,f,23,0,0,0,23,23,0,0,23,23,23,0,0,0,0,23,23,0,0,23,23,23,05-11-22,05-11-22,11:13:21,Mon Dec 05 2022 11:13:21 GMT+0100 (CET),The main experiment item,yes,0,0,/Users/ethan/Documents/GitHub/OpenSesame/Class1,0,0,0,no,mono,no,18,no,white,no,no,768,1003,3.6.1,psycho,psycho,4,osweb,1.4.11,1,klae,268,,,0,f,,f,f,f,f,f,650,,20836,4320,1415,885,650,2,psycho,816,1440,24,900,24,32,25,1440,1670234751112,1024,2,48000,-16,experiment,1,odd,MacIntel,kale,76329,67,67,67,,75046,52,75589,76246,,67,20912,25244,40353,76379,77044,67,76296,76379,ExPsyLing2022_Class1,24,17572,24,fruit_veg,yes,1024
100,100,730,730,black,no,block1,1,Mozilla,Netscape,"5.0 (Macintosh; Intel Mac OS X 10_15_7) AppleWebKit/605.1.15 (KHTML, like Gecko) Version/14.1.2 Safari/605.1.15",psycho,psycho,psycho,0,semi-scrambled,uniform,1,1,f,24,0,0,0,24,24,0,0,24,24,24,0,0,0,0,24,24,0,0,24,24,24,05-11-22,05-11-22,11:13:21,Mon Dec 05 2022 11:13:21 GMT+0100 (CET),The main experiment item,yes,0,0,/Users/ethan/Documents/GitHub/OpenSesame/Class1,0,0,0,no,mono,no,18,no,white,no,no,768,1003,3.6.1,psycho,psycho,6,osweb,1.4.11,1,cuitrs,268,,,0,f,,f,f,f,f,f,683,,20836,4320,1415,885,683,2,psycho,816,1440,24,900,24,32,25,1440,1670234751112,1024,2,48000,-16,experiment,1,odd,MacIntel,citrus,78329,67,67,67,,77047,52,77590,78246,,67,20912,25244,40353,78379,79076,67,78295,78379,ExPsyLing2022_Class1,25,18255,25,fruit_veg,yes,1024
100,100,730,730,black,no,block1,1,Mozilla,Netscape,"5.0 (Macintosh; Intel Mac OS X 10_15_7) AppleWebKit/605.1.15 (KHTML, like Gecko) Version/14.1.2 Safari/605.1.15",psycho,psycho,psycho,0,fully-scrambled,uniform,1,1,f,25,0,0,0,25,25,0,0,25,25,25,0,0,0,0,25,25,0,0,25,25,25,05-11-22,05-11-22,11:13:21,Mon Dec 05 2022 11:13:21 GMT+0100 (CET),The main experiment item,yes,0,0,/Users/ethan/Documents/GitHub/OpenSesame/Class1,0,0,0,no,mono,no,18,no,white,no,no,768,1003,3.6.1,psycho,psycho,5,osweb,1.4.11,1,rpgea,268,,,0,f,,f,f,f,f,f,720,,20836,4320,1415,885,720,2,psycho,816,1440,24,900,24,32,25,1440,1670234751112,1024,2,48000,-16,experiment,1,odd,MacIntel,grape,80363,67,67,67,,79079,52,79622,80279,,67,20912,25244,40353,80418,81143,67,80329,80417,ExPsyLing2022_Class1,26,18975,26,fruit_veg,yes,1024
100,100,728,728,black,no,block1,1,Mozilla,Netscape,"5.0 (Macintosh; Intel Mac OS X 10_15_7) AppleWebKit/605.1.15 (KHTML, like Gecko) Version/14.1.2 Safari/605.1.15",psycho,psycho,psycho,0,fully-scrambled,uniform,1,1,f,26,0,0,0,26,26,0,0,26,26,26,0,0,0,0,26,26,0,0,26,26,26,05-11-22,05-11-22,11:13:21,Mon Dec 05 2022 11:13:21 GMT+0100 (CET),The main experiment item,yes,0,0,/Users/ethan/Documents/GitHub/OpenSesame/Class1,0,0,0,no,mono,no,18,no,white,no,no,768,1003,3.6.1,psycho,psycho,8,osweb,1.4.11,1,nchizuic,268,,,0,f,,f,f,f,f,f,672,,20836,4320,1415,885,672,2,psycho,816,1440,24,900,24,32,25,1440,1670234751112,1024,2,48000,-16,experiment,1,odd,MacIntel,zucchini,82430,67,67,67,,81146,52,81690,82346,,67,20912,25244,40353,82480,83161,67,82396,82480,ExPsyLing2022_Class1,27,19647,27,fruit_veg,yes,1024
100,100,721,721,black,no,block1,1,Mozilla,Netscape,"5.0 (Macintosh; Intel Mac OS X 10_15_7) AppleWebKit/605.1.15 (KHTML, like Gecko) Version/14.1.2 Safari/605.1.15",psycho,psycho,psycho,0,identical,uniform,1,1,f,27,0,0,0,27,27,0,0,27,27,27,0,0,0,0,27,27,0,0,27,27,27,05-11-22,05-11-22,11:13:21,Mon Dec 05 2022 11:13:21 GMT+0100 (CET),The main experiment item,yes,0,0,/Users/ethan/Documents/GitHub/OpenSesame/Class1,0,0,0,no,mono,no,18,no,white,no,no,768,1003,3.6.1,psycho,psycho,4,osweb,1.4.11,1,bean,268,,,0,f,,f,f,f,f,f,544,,20836,4320,1415,885,544,2,psycho,816,1440,24,900,24,32,25,1440,1670234751112,1024,2,48000,-16,experiment,1,odd,MacIntel,bean,84447,67,67,67,,83163,52,83706,84363,,67,20912,25244,40353,84497,85043,67,84413,84496,ExPsyLing2022_Class1,28,20191,28,fruit_veg,yes,1024
100,100,721,721,black,no,block1,1,Mozilla,Netscape,"5.0 (Macintosh; Intel Mac OS X 10_15_7) AppleWebKit/605.1.15 (KHTML, like Gecko) Version/14.1.2 Safari/605.1.15",psycho,psycho,psycho,0,fully-scrambled,uniform,1,1,f,28,0,0,0,28,28,0,0,28,28,28,0,0,0,0,28,28,0,0,28,28,28,05-11-22,05-11-22,11:13:21,Mon Dec 05 2022 11:13:21 GMT+0100 (CET),The main experiment item,yes,0,0,/Users/ethan/Documents/GitHub/OpenSesame/Class1,0,0,0,no,mono,no,18,no,white,no,no,768,1003,3.6.1,psycho,psycho,7,osweb,1.4.11,1,ncucoto,268,,,0,f,,f,f,f,f,f,710,,20836,4320,1415,885,710,2,psycho,816,1440,24,900,24,32,25,1440,1670234751112,1024,2,48000,-16,experiment,1,odd,MacIntel,coconut,86329,67,67,67,,85046,52,85589,86247,,67,20912,25244,40353,86380,87094,67,86296,86379,ExPsyLing2022_Class1,29,20901,29,fruit_veg,yes,1024
100,100,712,712,black,no,block1,1,Mozilla,Netscape,"5.0 (Macintosh; Intel Mac OS X 10_15_7) AppleWebKit/605.1.15 (KHTML, like Gecko) Version/14.1.2 Safari/605.1.15",psycho,psycho,psycho,0,identical,uniform,1,1,a,29,0,0,0,29,29,0,0,29,29,29,0,0,0,0,29,29,0,0,29,29,29,05-11-22,05-11-22,11:13:21,Mon Dec 05 2022 11:13:21 GMT+0100 (CET),The main experiment item,yes,0,0,/Users/ethan/Documents/GitHub/OpenSesame/Class1,0,0,0,no,mono,no,18,no,white,no,no,768,1003,3.6.1,psycho,psycho,4,osweb,1.4.11,1,bull,268,,,0,a,,f,f,f,f,a,469,,20836,4320,1415,885,469,2,psycho,816,1440,24,900,24,32,25,1440,1670234751112,1024,2,48000,-16,experiment,1,odd,MacIntel,bull,88381,67,67,67,,87097,52,87640,88297,,67,20912,25244,40353,88435,88910,67,88347,88434,ExPsyLing2022_Class1,30,21370,30,animal,yes,1024
100,100,708,708,black,no,block1,1,Mozilla,Netscape,"5.0 (Macintosh; Intel Mac OS X 10_15_7) AppleWebKit/605.1.15 (KHTML, like Gecko) Version/14.1.2 Safari/605.1.15",psycho,psycho,psycho,0,identical,uniform,1,1,a,30,0,0,0,30,30,0,0,30,30,30,0,0,0,0,30,30,0,0,30,30,30,05-11-22,05-11-22,11:13:21,Mon Dec 05 2022 11:13:21 GMT+0100 (CET),The main experiment item,yes,0,0,/Users/ethan/Documents/GitHub/OpenSesame/Class1,0,0,0,no,mono,no,18,no,white,no,no,768,1003,3.6.1,psycho,psycho,4,osweb,1.4.11,1,mink,268,,,0,a,,f,f,f,f,a,593,,20836,4320,1415,885,593,2,psycho,816,1440,24,900,24,32,25,1440,1670234751112,1024,2,48000,-16,experiment,1,odd,MacIntel,mink,90197,67,67,67,,88914,52,89457,90114,,67,20912,25244,40353,90247,90845,67,90163,90247,ExPsyLing2022_Class1,31,21963,31,animal,yes,1024
100,100,706,706,black,no,block1,1,Mozilla,Netscape,"5.0 (Macintosh; Intel Mac OS X 10_15_7) AppleWebKit/605.1.15 (KHTML, like Gecko) Version/14.1.2 Safari/605.1.15",psycho,psycho,psycho,0,semi-scrambled,uniform,1,1,a,31,0,0,0,31,31,0,0,31,31,31,0,0,0,0,31,31,0,0,31,31,31,05-11-22,05-11-22,11:13:21,Mon Dec 05 2022 11:13:21 GMT+0100 (CET),The main experiment item,yes,0,0,/Users/ethan/Documents/GitHub/OpenSesame/Class1,0,0,0,no,mono,no,18,no,white,no,no,768,1003,3.6.1,psycho,psycho,4,osweb,1.4.11,1,claf,268,,,0,a,,f,f,f,f,a,624,,20836,4320,1415,885,624,2,psycho,816,1440,24,900,24,32,25,1440,1670234751112,1024,2,48000,-16,experiment,1,odd,MacIntel,calf,92131,67,67,67,,90848,52,91392,92047,,67,20912,25244,40353,92180,92811,67,92097,92180,ExPsyLing2022_Class1,32,22587,32,animal,yes,1024
100,100,705,705,black,no,block1,1,Mozilla,Netscape,"5.0 (Macintosh; Intel Mac OS X 10_15_7) AppleWebKit/605.1.15 (KHTML, like Gecko) Version/14.1.2 Safari/605.1.15",psycho,psycho,psycho,0,identical,uniform,1,1,a,32,0,0,0,32,32,0,0,32,32,32,0,0,0,0,32,32,0,0,32,32,32,05-11-22,05-11-22,11:13:21,Mon Dec 05 2022 11:13:21 GMT+0100 (CET),The main experiment item,yes,0,0,/Users/ethan/Documents/GitHub/OpenSesame/Class1,0,0,0,no,mono,no,18,no,white,no,no,768,1003,3.6.1,psycho,psycho,5,osweb,1.4.11,1,tiger,268,,,0,a,,f,f,f,f,a,662,,20836,4320,1415,885,662,2,psycho,816,1440,24,900,24,32,25,1440,1670234751112,1024,2,48000,-16,experiment,1,odd,MacIntel,tiger,94114,67,67,67,,92814,52,93357,94014,,67,20912,25244,40353,94164,94827,67,94064,94164,ExPsyLing2022_Class1,33,23249,33,animal,yes,1024
100,100,701,701,black,no,block1,1,Mozilla,Netscape,"5.0 (Macintosh; Intel Mac OS X 10_15_7) AppleWebKit/605.1.15 (KHTML, like Gecko) Version/14.1.2 Safari/605.1.15",psycho,psycho,psycho,0,semi-scrambled,uniform,1,1,a,33,0,0,0,33,33,0,0,33,33,33,0,0,0,0,33,33,0,0,33,33,33,05-11-22,05-11-22,11:13:21,Mon Dec 05 2022 11:13:21 GMT+0100 (CET),The main experiment item,yes,0,0,/Users/ethan/Documents/GitHub/OpenSesame/Class1,0,0,0,no,mono,no,18,no,white,no,no,768,1003,3.6.1,psycho,psycho,5,osweb,1.4.11,1,hrsoe,268,,,0,a,,f,f,f,f,a,582,,20836,4320,1415,885,582,2,psycho,816,1440,24,900,24,32,25,1440,1670234751112,1024,2,48000,-16,experiment,1,odd,MacIntel,horse,96114,67,67,67,,94830,52,95377,96030,,67,20912,25244,40353,96164,96762,67,96080,96164,ExPsyLing2022_Class1,34,23831,34,animal,yes,1024
100,100,699,699,black,no,block1,1,Mozilla,Netscape,"5.0 (Macintosh; Intel Mac OS X 10_15_7) AppleWebKit/605.1.15 (KHTML, like Gecko) Version/14.1.2 Safari/605.1.15",psycho,psycho,psycho,0,fully-scrambled,uniform,1,1,f,34,0,0,0,34,34,0,0,34,34,34,0,0,0,0,34,34,0,0,34,34,34,05-11-22,05-11-22,11:13:21,Mon Dec 05 2022 11:13:21 GMT+0100 (CET),The main experiment item,yes,0,0,/Users/ethan/Documents/GitHub/OpenSesame/Class1,0,0,0,no,mono,no,18,no,white,no,no,768,1003,3.6.1,psycho,psycho,8,osweb,1.4.11,1,coblocir,268,,,0,f,,f,f,f,f,f,637,,20836,4320,1415,885,637,2,psycho,816,1440,24,900,24,32,25,1440,1670234751112,1024,2,48000,-16,experiment,1,odd,MacIntel,broccoli,98047,67,67,67,,96765,52,97311,97964,,67,20912,25244,40353,98097,98745,67,98014,98097,ExPsyLing2022_Class1,35,24468,35,fruit_veg,yes,1024
100,100,698,698,black,no,block1,1,Mozilla,Netscape,"5.0 (Macintosh; Intel Mac OS X 10_15_7) AppleWebKit/605.1.15 (KHTML, like Gecko) Version/14.1.2 Safari/605.1.15",psycho,psycho,psycho,0,fully-scrambled,uniform,1,1,a,35,0,0,0,35,35,0,0,35,35,35,0,0,0,0,35,35,0,0,35,35,35,05-11-22,05-11-22,11:13:21,Mon Dec 05 2022 11:13:21 GMT+0100 (CET),The main experiment item,yes,0,0,/Users/ethan/Documents/GitHub/OpenSesame/Class1,0,0,0,no,mono,no,18,no,white,no,no,768,1003,3.6.1,psycho,psycho,6,osweb,1.4.11,1,guajra,268,,,0,a,,f,f,f,f,a,671,,20836,4320,1415,885,671,2,psycho,816,1440,24,900,24,32,25,1440,1670234751112,1024,2,48000,-16,experiment,1,odd,MacIntel,jaguar,100031,67,67,67,,98748,52,99291,99947,,67,20912,25244,40353,100081,100762,67,99997,100081,ExPsyLing2022_Class1,36,25139,36,animal,yes,1024
100,100,699,699,black,no,block1,1,Mozilla,Netscape,"5.0 (Macintosh; Intel Mac OS X 10_15_7) AppleWebKit/605.1.15 (KHTML, like Gecko) Version/14.1.2 Safari/605.1.15",psycho,psycho,psycho,0,identical,uniform,1,1,f,36,0,0,0,36,36,0,0,36,36,36,0,0,0,0,36,36,0,0,36,36,36,05-11-22,05-11-22,11:13:21,Mon Dec 05 2022 11:13:21 GMT+0100 (CET),The main experiment item,yes,0,0,/Users/ethan/Documents/GitHub/OpenSesame/Class1,0,0,0,no,mono,no,18,no,white,no,no,768,1003,3.6.1,psycho,psycho,8,osweb,1.4.11,1,mushroom,268,,,0,f,,f,f,f,f,f,735,,20836,4320,1415,885,735,2,psycho,816,1440,24,900,24,32,25,1440,1670234751112,1024,2,48000,-16,experiment,1,odd,MacIntel,mushroom,102048,67,67,67,,100765,52,101307,101964,,67,20912,25244,40353,102098,102846,67,102014,102097,ExPsyLing2022_Class1,37,25874,37,fruit_veg,yes,1024
100,100,698,698,black,no,block1,1,Mozilla,Netscape,"5.0 (Macintosh; Intel Mac OS X 10_15_7) AppleWebKit/605.1.15 (KHTML, like Gecko) Version/14.1.2 Safari/605.1.15",psycho,psycho,psycho,0,identical,uniform,1,1,f,37,0,0,0,37,37,0,0,37,37,37,0,0,0,0,37,37,0,0,37,37,37,05-11-22,05-11-22,11:13:21,Mon Dec 05 2022 11:13:21 GMT+0100 (CET),The main experiment item,yes,0,0,/Users/ethan/Documents/GitHub/OpenSesame/Class1,0,0,0,no,mono,no,18,no,white,no,no,768,1003,3.6.1,psycho,psycho,8,osweb,1.4.11,1,eggplant,268,,,0,f,,f,f,f,f,f,648,,20836,4320,1415,885,648,2,psycho,816,1440,24,900,24,32,25,1440,1670234751112,1024,2,48000,-16,experiment,1,odd,MacIntel,eggplant,104131,67,67,67,,102849,52,103389,104048,,67,20912,25244,40353,104181,104845,67,104098,104181,ExPsyLing2022_Class1,38,26522,38,fruit_veg,yes,1024
100,100,703,703,black,no,block1,1,Mozilla,Netscape,"5.0 (Macintosh; Intel Mac OS X 10_15_7) AppleWebKit/605.1.15 (KHTML, like Gecko) Version/14.1.2 Safari/605.1.15",psycho,psycho,psycho,0,fully-scrambled,uniform,1,1,a,38,0,0,0,38,38,0,0,38,38,38,0,0,0,0,38,38,0,0,38,38,38,05-11-22,05-11-22,11:13:21,Mon Dec 05 2022 11:13:21 GMT+0100 (CET),The main experiment item,yes,0,0,/Users/ethan/Documents/GitHub/OpenSesame/Class1,0,0,0,no,mono,no,18,no,white,no,no,768,1003,3.6.1,psycho,psycho,8,osweb,1.4.11,1,lypustap,268,,,0,a,,f,f,f,f,a,912,,20836,4320,1415,885,912,2,psycho,816,1440,24,900,24,32,25,1440,1670234751112,1024,2,48000,-16,experiment,1,odd,MacIntel,platypus,106131,67,67,67,,104847,52,105390,106048,,67,20912,25244,40353,106180,107096,67,106098,106180,ExPsyLing2022_Class1,39,27434,39,animal,yes,1024
100,100,700,700,black,no,block1,1,Mozilla,Netscape,"5.0 (Macintosh; Intel Mac OS X 10_15_7) AppleWebKit/605.1.15 (KHTML, like Gecko) Version/14.1.2 Safari/605.1.15",psycho,psycho,psycho,0,identical,uniform,1,1,f,39,0,0,0,39,39,0,0,39,39,39,0,0,0,0,39,39,0,0,39,39,39,05-11-22,05-11-22,11:13:21,Mon Dec 05 2022 11:13:21 GMT+0100 (CET),The main experiment item,yes,0,0,/Users/ethan/Documents/GitHub/OpenSesame/Class1,0,0,0,no,mono,no,18,no,white,no,no,768,1003,3.6.1,psycho,psycho,4,osweb,1.4.11,1,lime,268,,,0,f,,f,f,f,f,f,558,,20836,4320,1415,885,558,2,psycho,816,1440,24,900,24,32,25,1440,1670234751112,1024,2,48000,-16,experiment,1,odd,MacIntel,lime,108382,67,67,67,,107099,52,107640,108298,,67,20912,25244,40353,108432,108995,67,108348,108432,ExPsyLing2022_Class1,40,27992,40,fruit_veg,yes,1024
98,98,702,702,black,no,block1,1,Mozilla,Netscape,"5.0 (Macintosh; Intel Mac OS X 10_15_7) AppleWebKit/605.1.15 (KHTML, like Gecko) Version/14.1.2 Safari/605.1.15",psycho,psycho,psycho,0,fully-scrambled,uniform,0,0,a,40,0,0,0,40,40,0,0,40,40,40,0,0,0,0,40,40,0,0,40,40,40,05-11-22,05-11-22,11:13:21,Mon Dec 05 2022 11:13:21 GMT+0100 (CET),The main experiment item,yes,0,0,/Users/ethan/Documents/GitHub/OpenSesame/Class1,0,0,0,no,mono,no,18,no,white,no,no,768,1003,3.6.1,psycho,psycho,8,osweb,1.4.11,1,lnafomg,268,,,0,f,f,f,f,f,f,f,791,915,20836,4320,1415,885,791,2,psycho,816,1440,24,900,24,32,25,1440,1670234751112,1024,2,48000,-16,experiment,1,odd,MacIntel,flamingo,111232,67,67,67,109545,108998,52,110464,111132,,67,20912,25244,40353,111281,112079,67,111182,111281,ExPsyLing2022_Class1,40,28783,41,animal,yes,1024
98,98,704,704,black,no,block1,1,Mozilla,Netscape,"5.0 (Macintosh; Intel Mac OS X 10_15_7) AppleWebKit/605.1.15 (KHTML, like Gecko) Version/14.1.2 Safari/605.1.15",psycho,psycho,psycho,0,fully-scrambled,uniform,1,1,a,41,0,0,0,41,41,0,0,41,41,41,0,0,0,0,41,41,0,0,41,41,41,05-11-22,05-11-22,11:13:21,Mon Dec 05 2022 11:13:21 GMT+0100 (CET),The main experiment item,yes,0,0,/Users/ethan/Documents/GitHub/OpenSesame/Class1,0,0,0,no,mono,no,18,no,white,no,no,768,1003,3.6.1,psycho,psycho,4,osweb,1.4.11,1,aotg,268,,,0,a,f,f,f,f,f,a,786,915,20836,4320,1415,885,786,2,psycho,816,1440,24,900,24,32,25,1440,1670234751112,1024,2,48000,-16,experiment,1,odd,MacIntel,goat,113366,67,67,67,109545,108998,52,112623,113283,112083,67,20912,25244,40353,113415,114213,67,113332,113415,ExPsyLing2022_Class1,41,29569,42,animal,yes,1024
98,98,703,703,black,no,block1,1,Mozilla,Netscape,"5.0 (Macintosh; Intel Mac OS X 10_15_7) AppleWebKit/605.1.15 (KHTML, like Gecko) Version/14.1.2 Safari/605.1.15",psycho,psycho,psycho,0,fully-scrambled,uniform,1,1,a,42,0,0,0,42,42,0,0,42,42,42,0,0,0,0,42,42,0,0,42,42,42,05-11-22,05-11-22,11:13:21,Mon Dec 05 2022 11:13:21 GMT+0100 (CET),The main experiment item,yes,0,0,/Users/ethan/Documents/GitHub/OpenSesame/Class1,0,0,0,no,mono,no,18,no,white,no,no,768,1003,3.6.1,psycho,psycho,8,osweb,1.4.11,1,etlaopen,268,,,0,a,f,f,f,f,f,a,665,915,20836,4320,1415,885,665,2,psycho,816,1440,24,900,24,32,25,1440,1670234751112,1024,2,48000,-16,experiment,1,odd,MacIntel,antelope,115499,67,67,67,109545,114218,52,114759,115416,112083,67,20912,25244,40353,115549,116230,67,115464,115549,ExPsyLing2022_Class1,42,30234,43,animal,yes,1024
