"acc","accuracy","average_response_time","avg_rt","background","canvas_backend","clock_backend","color_backend","compensation","condition","coordinates","correct","correct_instructions1","correct_instructions2","correct_instructions3","correct_instructions4","correct_keyboard_response","correct_response","correct_stim","count_ISI","count_block_one","count_block_two","count_break","count_experiment","count_fixation","count_instructions1","count_instructions2","count_instructions3","count_instructions4","count_keyboard_response","count_logger","count_new_inline_javascript","count_stim","count_trial_sequence","datetime","description","disable_garbage_collection","experiment_file","experiment_path","false_response","font_bold","font_family","font_italic","font_size","font_underline","foreground","form_clicks","fullscreen","height","keyboard_backend","live_row","live_row_block_one","logfile","mouse_backend","opensesame_codename","opensesame_version","repeat_cycle","response","response_break","response_instructions1","response_instructions2","response_instructions3","response_instructions4","response_keyboard_response","response_stim","response_time","response_time_break","response_time_instructions1","response_time_instructions2","response_time_instructions3","response_time_instructions4","response_time_keyboard_response","response_time_stim","round_decimals","sampler_backend","sound_buf_size","sound_channels","sound_freq","sound_sample_size","start","stim","subject_nr","subject_parity","time_ISI","time_block_one","time_block_two","time_break","time_experiment","time_fixation","time_instructions1","time_instructions2","time_instructions3","time_instructions4","time_keyboard_response","time_logger","time_new_inline_javascript","time_stim","time_trial_sequence","title","total_correct","total_response_time","total_responses","true_false","true_response","uniform_coordinates","width"
"0","0","1000","1000","black","legacy","legacy","legacy","0","PO","uniform","0","undefined","undefined","undefined","undefined","0","[false_response]","0","0","0","0","0","0","0","0","0","0","0","0","0","0","0","0","Wed Nov 17 08:47:24 2021","The main experiment item","yes","Sentence_verification.osexp","/Users/ethan/Documents/GitHub/OpenSesame/SentenceVerification","z","no","mono","no","18","no","white","no","no","768","legacy","0","0","/Users/ethan/Documents/GitHub/OpenSesame/SentenceVerification/subject-0.csv","legacy","Lentiform Loewenfeld","3.3.11a1","0","None","NA","space","space","space","space","None","m","1000","NA","5252","9317","10221","5171","1000","1070","2","legacy","1024","2","48000","-16","experiment","A rowboat has a motor.","0","even","34307","32704","NA","NA","2596","33803","2701","7982","17308","27533","34507","35507","2695","32729","32725","Sentence_verification","0","1000","1","FALSE","m","yes","1024"
"0","0","1000","1000","black","legacy","legacy","legacy","0","SO","uniform","0","undefined","undefined","undefined","undefined","0","[false_response]","1","1","0","0","0","0","1","0","0","0","0","1","1","0","1","1","Wed Nov 17 08:47:24 2021","The main experiment item","yes","Sentence_verification.osexp","/Users/ethan/Documents/GitHub/OpenSesame/SentenceVerification","z","no","mono","no","18","no","white","no","no","768","legacy","1","1","/Users/ethan/Documents/GitHub/OpenSesame/SentenceVerification/subject-0.csv","legacy","Lentiform Loewenfeld","3.3.11a1","0","None","NA","space","space","space","space","None","z","1000","NA","5252","9317","10221","5171","1000","1636","2","legacy","1024","2","48000","-16","experiment","A raft is a destroyer.","0","even","37712","32704","NA","NA","2596","37208","2701","7982","17308","27533","37912","38912","2695","35568","35563","Sentence_verification","0","2000","2","FALSE","m","yes","1024"
"0","0","1000","1000","black","legacy","legacy","legacy","0","S1","uniform","0","undefined","undefined","undefined","undefined","0","[false_response]","1","2","0","0","0","0","2","0","0","0","0","2","2","0","2","2","Wed Nov 17 08:47:24 2021","The main experiment item","yes","Sentence_verification.osexp","/Users/ethan/Documents/GitHub/OpenSesame/SentenceVerification","z","no","mono","no","18","no","white","no","no","768","legacy","2","2","/Users/ethan/Documents/GitHub/OpenSesame/SentenceVerification/subject-0.csv","legacy","Lentiform Loewenfeld","3.3.11a1","0","None","NA","space","space","space","space","None","z","1000","NA","5252","9317","10221","5171","1000","1345","2","legacy","1024","2","48000","-16","experiment","Football is a lottery.","0","even","40816","32704","NA","NA","2596","40313","2701","7982","17308","27533","41017","42017","2695","38964","38960","Sentence_verification","0","3000","3","FALSE","m","yes","1024"
"0","0","1000","1000","black","legacy","legacy","legacy","0","S1","uniform","0","undefined","undefined","undefined","undefined","0","[true_response]","1","3","0","0","0","0","3","0","0","0","0","3","3","0","3","3","Wed Nov 17 08:47:24 2021","The main experiment item","yes","Sentence_verification.osexp","/Users/ethan/Documents/GitHub/OpenSesame/SentenceVerification","z","no","mono","no","18","no","white","no","no","768","legacy","3","3","/Users/ethan/Documents/GitHub/OpenSesame/SentenceVerification/subject-0.csv","legacy","Lentiform Loewenfeld","3.3.11a1","0","None","NA","space","space","space","space","None","m","1000","NA","5252","9317","10221","5171","1000","1012","2","legacy","1024","2","48000","-16","experiment","Tennis is a game","0","even","43591","32704","NA","NA","2596","43088","2701","7982","17308","27533","43791","44791","2695","42072","42067","Sentence_verification","0","4000","4","TRUE","m","yes","1024"
"0","0","1000","1000","black","legacy","legacy","legacy","0","P2","uniform","0","undefined","undefined","undefined","undefined","0","[false_response]","1","4","0","0","0","0","4","0","0","0","0","4","4","0","4","4","Wed Nov 17 08:47:24 2021","The main experiment item","yes","Sentence_verification.osexp","/Users/ethan/Documents/GitHub/OpenSesame/SentenceVerification","z","no","mono","no","18","no","white","no","no","768","legacy","4","4","/Users/ethan/Documents/GitHub/OpenSesame/SentenceVerification/subject-0.csv","legacy","Lentiform Loewenfeld","3.3.11a1","0","None","NA","space","space","space","space","None","z","1000","NA","5252","9317","10221","5171","1000","1240","2","legacy","1024","2","48000","-16","experiment","Bourbon is gritty.","0","even","46591","32704","NA","NA","2596","46088","2701","7982","17308","27533","46791","47791","2695","44844","44840","Sentence_verification","0","5000","5","FALSE","m","yes","1024"
"0","0","1000","1000","black","legacy","legacy","legacy","0","PO","uniform","0","undefined","undefined","undefined","undefined","0","[false_response]","1","5","0","0","0","0","5","0","0","0","0","5","5","0","5","5","Wed Nov 17 08:47:24 2021","The main experiment item","yes","Sentence_verification.osexp","/Users/ethan/Documents/GitHub/OpenSesame/SentenceVerification","z","no","mono","no","18","no","white","no","no","768","legacy","5","5","/Users/ethan/Documents/GitHub/OpenSesame/SentenceVerification/subject-0.csv","legacy","Lentiform Loewenfeld","3.3.11a1","0","None","NA","space","space","space","space","None","z","1000","NA","5252","9317","10221","5171","1000","1026","2","legacy","1024","2","48000","-16","experiment","A crow is green.","0","even","49381","32704","NA","NA","2596","48878","2701","7982","17308","27533","49581","50581","2695","47848","47844","Sentence_verification","0","6000","6","FALSE","m","yes","1024"
"0","0","1000","1000","black","legacy","legacy","legacy","0","P1","uniform","0","undefined","undefined","undefined","undefined","0","[false_response]","1","6","0","0","0","0","6","0","0","0","0","6","6","0","6","6","Wed Nov 17 08:47:24 2021","The main experiment item","yes","Sentence_verification.osexp","/Users/ethan/Documents/GitHub/OpenSesame/SentenceVerification","z","no","mono","no","18","no","white","no","no","768","legacy","6","6","/Users/ethan/Documents/GitHub/OpenSesame/SentenceVerification/subject-0.csv","legacy","Lentiform Loewenfeld","3.3.11a1","0","None","NA","space","space","space","space","None","z","1000","NA","5252","9317","10221","5171","1000","1555","2","legacy","1024","2","48000","-16","experiment","Mints are salty.","0","even","52696","32704","NA","NA","2596","52193","2701","7982","17308","27533","52896","53896","2695","50634","50630","Sentence_verification","0","7000","7","FALSE","m","yes","1024"
"0","0","1000","1000","black","legacy","legacy","legacy","0","SO","uniform","0","undefined","undefined","undefined","undefined","0","[false_response]","1","7","0","0","0","0","7","0","0","0","0","7","7","0","7","7","Wed Nov 17 08:47:24 2021","The main experiment item","yes","Sentence_verification.osexp","/Users/ethan/Documents/GitHub/OpenSesame/SentenceVerification","z","no","mono","no","18","no","white","no","no","768","legacy","7","7","/Users/ethan/Documents/GitHub/OpenSesame/SentenceVerification/subject-0.csv","legacy","Lentiform Loewenfeld","3.3.11a1","0","None","NA","space","space","space","space","None","z","1000","NA","5252","9317","10221","5171","1000","3607","2","legacy","1024","2","48000","-16","experiment","A bass is a crab.","0","even","58068","32704","NA","NA","2596","57565","2701","7982","17308","27533","58269","59269","2695","53953","53949","Sentence_verification","0","8000","8","FALSE","m","yes","1024"
"0","0","1000","1000","black","legacy","legacy","legacy","0","P1","uniform","0","undefined","undefined","undefined","undefined","0","[true_response]","1","8","0","0","0","0","8","0","0","0","0","8","8","0","8","8","Wed Nov 17 08:47:24 2021","The main experiment item","yes","Sentence_verification.osexp","/Users/ethan/Documents/GitHub/OpenSesame/SentenceVerification","z","no","mono","no","18","no","white","no","no","768","legacy","8","8","/Users/ethan/Documents/GitHub/OpenSesame/SentenceVerification/subject-0.csv","legacy","Lentiform Loewenfeld","3.3.11a1","0","None","NA","space","space","space","space","None","m","1000","NA","5252","9317","10221","5171","1000","3729","2","legacy","1024","2","48000","-16","experiment","Silk is woven.","0","even","63556","32704","NA","NA","2596","63053","2701","7982","17308","27533","63756","64756","2695","59320","59316","Sentence_verification","0","9000","9","TRUE","m","yes","1024"
"0","0","1000","1000","black","legacy","legacy","legacy","0","S1","uniform","0","undefined","undefined","undefined","undefined","0","[false_response]","1","9","0","0","0","0","9","0","0","0","0","9","9","0","9","9","Wed Nov 17 08:47:24 2021","The main experiment item","yes","Sentence_verification.osexp","/Users/ethan/Documents/GitHub/OpenSesame/SentenceVerification","z","no","mono","no","18","no","white","no","no","768","legacy","9","9","/Users/ethan/Documents/GitHub/OpenSesame/SentenceVerification/subject-0.csv","legacy","Lentiform Loewenfeld","3.3.11a1","0","None","NA","space","space","space","space","None","z","1000","NA","5252","9317","10221","5171","1000","1996","2","legacy","1024","2","48000","-16","experiment","Cremes are cookies.","0","even","67307","32704","NA","NA","2596","66803","2701","7982","17308","27533","67507","68507","2695","64803","64799","Sentence_verification","0","10000","10","FALSE","m","yes","1024"
"0","0","1000","1000","black","legacy","legacy","legacy","0","SO","uniform","0","undefined","undefined","undefined","undefined","0","[false_response]","1","10","0","0","0","0","10","0","0","0","0","10","10","0","10","10","Wed Nov 17 08:47:24 2021","The main experiment item","yes","Sentence_verification.osexp","/Users/ethan/Documents/GitHub/OpenSesame/SentenceVerification","z","no","mono","no","18","no","white","no","no","768","legacy","10","10","/Users/ethan/Documents/GitHub/OpenSesame/SentenceVerification/subject-0.csv","legacy","Lentiform Loewenfeld","3.3.11a1","0","None","NA","space","space","space","space","None","z","1000","NA","5252","9317","10221","5171","1000","1303","2","legacy","1024","2","48000","-16","experiment","Egypt is Europe.","0","even","70366","32704","NA","NA","2596","69863","2701","7982","17308","27533","70567","71567","2695","68556","68553","Sentence_verification","0","11000","11","FALSE","m","yes","1024"
"0","0","1000","1000","black","legacy","legacy","legacy","0","S1","uniform","0","undefined","undefined","undefined","undefined","0","[true_response]","1","11","0","0","0","0","11","0","0","0","0","11","11","0","11","11","Wed Nov 17 08:47:24 2021","The main experiment item","yes","Sentence_verification.osexp","/Users/ethan/Documents/GitHub/OpenSesame/SentenceVerification","z","no","mono","no","18","no","white","no","no","768","legacy","11","11","/Users/ethan/Documents/GitHub/OpenSesame/SentenceVerification/subject-0.csv","legacy","Lentiform Loewenfeld","3.3.11a1","0","None","NA","space","space","space","space","None","m","1000","NA","5252","9317","10221","5171","1000","937","2","legacy","1024","2","48000","-16","experiment","An orchid is a flower.","0","even","73068","32704","NA","NA","2596","72563","2701","7982","17308","27533","73269","74269","2695","71623","71619","Sentence_verification","0","12000","12","TRUE","m","yes","1024"
"0","0","1000","1000","black","legacy","legacy","legacy","0","P1","uniform","0","undefined","undefined","undefined","undefined","0","[false_response]","1","12","0","0","0","0","12","0","0","0","0","12","12","0","12","12","Wed Nov 17 08:47:24 2021","The main experiment item","yes","Sentence_verification.osexp","/Users/ethan/Documents/GitHub/OpenSesame/SentenceVerification","z","no","mono","no","18","no","white","no","no","768","legacy","12","12","/Users/ethan/Documents/GitHub/OpenSesame/SentenceVerification/subject-0.csv","legacy","Lentiform Loewenfeld","3.3.11a1","0","None","NA","space","space","space","space","None","z","1000","NA","5252","9317","10221","5171","1000","1103","2","legacy","1024","2","48000","-16","experiment","A banana has bones.","0","even","75932","32704","NA","NA","2596","75429","2701","7982","17308","27533","76133","77133","2695","74321","74317","Sentence_verification","0","13000","13","FALSE","m","yes","1024"
"0","0","1000","1000","black","legacy","legacy","legacy","0","S1","uniform","0","undefined","undefined","undefined","undefined","0","[true_response]","1","13","0","0","0","0","13","0","0","0","0","13","13","0","13","13","Wed Nov 17 08:47:24 2021","The main experiment item","yes","Sentence_verification.osexp","/Users/ethan/Documents/GitHub/OpenSesame/SentenceVerification","z","no","mono","no","18","no","white","no","no","768","legacy","13","13","/Users/ethan/Documents/GitHub/OpenSesame/SentenceVerification/subject-0.csv","legacy","Lentiform Loewenfeld","3.3.11a1","0","None","NA","space","space","space","space","None","m","1000","NA","5252","9317","10221","5171","1000","993","2","legacy","1024","2","48000","-16","experiment","A parrot is a bird.","0","even","78694","32704","NA","NA","2596","78190","2701","7982","17308","27533","78894","79894","2695","77191","77187","Sentence_verification","0","14000","14","TRUE","m","yes","1024"
"0","0","1000","1000","black","legacy","legacy","legacy","0","S2","uniform","0","undefined","undefined","undefined","undefined","0","[true_response]","1","14","0","0","0","0","14","0","0","0","0","14","14","0","14","14","Wed Nov 17 08:47:24 2021","The main experiment item","yes","Sentence_verification.osexp","/Users/ethan/Documents/GitHub/OpenSesame/SentenceVerification","z","no","mono","no","18","no","white","no","no","768","legacy","14","14","/Users/ethan/Documents/GitHub/OpenSesame/SentenceVerification/subject-0.csv","legacy","Lentiform Loewenfeld","3.3.11a1","0","None","NA","space","space","space","space","None","m","1000","NA","5252","9317","10221","5171","1000","1460","2","legacy","1024","2","48000","-16","experiment","A corporal is a person.","0","even","81917","32704","NA","NA","2596","81414","2701","7982","17308","27533","82118","83118","2695","79949","79945","Sentence_verification","0","15000","15","TRUE","m","yes","1024"
"0","0","1000","1000","black","legacy","legacy","legacy","0","PO","uniform","0","undefined","undefined","undefined","undefined","0","[true_response]","1","15","0","0","0","0","15","0","0","0","0","15","15","0","15","15","Wed Nov 17 08:47:24 2021","The main experiment item","yes","Sentence_verification.osexp","/Users/ethan/Documents/GitHub/OpenSesame/SentenceVerification","z","no","mono","no","18","no","white","no","no","768","legacy","15","15","/Users/ethan/Documents/GitHub/OpenSesame/SentenceVerification/subject-0.csv","legacy","Lentiform Loewenfeld","3.3.11a1","0","None","NA","space","space","space","space","None","m","1000","NA","5252","9317","10221","5171","1000","1643","2","legacy","1024","2","48000","-16","experiment","Nylon is smooth.","0","even","85326","32704","NA","NA","2596","84819","2701","7982","17308","27533","85526","86526","2695","83171","83166","Sentence_verification","0","16000","16","TRUE","m","yes","1024"
"0","0","1000","1000","black","legacy","legacy","legacy","0","P1","uniform","0","undefined","undefined","undefined","undefined","0","[true_response]","1","16","0","0","0","0","16","0","0","0","0","16","16","0","16","16","Wed Nov 17 08:47:24 2021","The main experiment item","yes","Sentence_verification.osexp","/Users/ethan/Documents/GitHub/OpenSesame/SentenceVerification","z","no","mono","no","18","no","white","no","no","768","legacy","16","16","/Users/ethan/Documents/GitHub/OpenSesame/SentenceVerification/subject-0.csv","legacy","Lentiform Loewenfeld","3.3.11a1","0","None","NA","space","space","space","space","None","m","1000","NA","5252","9317","10221","5171","1000","1040","2","legacy","1024","2","48000","-16","experiment","A pistol can fire. ","0","even","88129","32704","NA","NA","2596","87623","2701","7982","17308","27533","88329","89329","2695","86579","86576","Sentence_verification","0","17000","17","TRUE","m","yes","1024"
"0","0","1000","1000","black","legacy","legacy","legacy","0","S1","uniform","0","undefined","undefined","undefined","undefined","0","[false_response]","1","17","0","0","0","0","17","0","0","0","0","17","17","0","17","17","Wed Nov 17 08:47:24 2021","The main experiment item","yes","Sentence_verification.osexp","/Users/ethan/Documents/GitHub/OpenSesame/SentenceVerification","z","no","mono","no","18","no","white","no","no","768","legacy","17","17","/Users/ethan/Documents/GitHub/OpenSesame/SentenceVerification/subject-0.csv","legacy","Lentiform Loewenfeld","3.3.11a1","0","None","NA","space","space","space","space","None","z","1000","NA","5252","9317","10221","5171","1000","931","2","legacy","1024","2","48000","-16","experiment","An apple is a building.","0","even","90827","32704","NA","NA","2596","90323","2701","7982","17308","27533","91027","92027","2695","89388","89382","Sentence_verification","0","18000","18","FALSE","m","yes","1024"
"0","0","1000","1000","black","legacy","legacy","legacy","0","SO","uniform","0","undefined","undefined","undefined","undefined","0","[false_response]","1","18","0","0","0","0","18","0","0","0","0","18","18","0","18","18","Wed Nov 17 08:47:24 2021","The main experiment item","yes","Sentence_verification.osexp","/Users/ethan/Documents/GitHub/OpenSesame/SentenceVerification","z","no","mono","no","18","no","white","no","no","768","legacy","18","18","/Users/ethan/Documents/GitHub/OpenSesame/SentenceVerification/subject-0.csv","legacy","Lentiform Loewenfeld","3.3.11a1","0","None","NA","space","space","space","space","None","z","1000","NA","5252","9317","10221","5171","1000","2150","2","legacy","1024","2","48000","-16","experiment","Chicago is a state.","0","even","94743","32704","NA","NA","2596","94238","2701","7982","17308","27533","94943","95943","2695","92084","92079","Sentence_verification","0","19000","19","FALSE","m","yes","1024"
"0","0","1000","1000","black","legacy","legacy","legacy","0","SO","uniform","0","undefined","undefined","undefined","undefined","0","[true_response]","1","19","0","0","0","0","19","0","0","0","0","19","19","0","19","19","Wed Nov 17 08:47:24 2021","The main experiment item","yes","Sentence_verification.osexp","/Users/ethan/Documents/GitHub/OpenSesame/SentenceVerification","z","no","mono","no","18","no","white","no","no","768","legacy","19","19","/Users/ethan/Documents/GitHub/OpenSesame/SentenceVerification/subject-0.csv","legacy","Lentiform Loewenfeld","3.3.11a1","0","None","NA","space","space","space","space","None","m","1000","NA","5252","9317","10221","5171","1000","1056","2","legacy","1024","2","48000","-16","experiment","A robin is a robin.","0","even","97563","32704","NA","NA","2596","97059","2701","7982","17308","27533","97764","98764","2695","95998","95994","Sentence_verification","0","20000","20","TRUE","m","yes","1024"
"0","0","1000","1000","black","legacy","legacy","legacy","0","SO","uniform","0","undefined","undefined","undefined","undefined","0","[true_response]","1","20","0","0","0","0","20","0","0","0","0","20","20","0","20","20","Wed Nov 17 08:47:24 2021","The main experiment item","yes","Sentence_verification.osexp","/Users/ethan/Documents/GitHub/OpenSesame/SentenceVerification","z","no","mono","no","18","no","white","no","no","768","legacy","20","20","/Users/ethan/Documents/GitHub/OpenSesame/SentenceVerification/subject-0.csv","legacy","Lentiform Loewenfeld","3.3.11a1","0","None","NA","space","space","space","space","None","m","1000","NA","5252","9317","10221","5171","1000","794","2","legacy","1024","2","48000","-16","experiment","A shotgun is a shotgun. ","0","even","100113","32704","NA","NA","2596","99609","2701","7982","17308","27533","100313","101313","2695","98810","98805","Sentence_verification","0","21000","21","TRUE","m","yes","1024"
"0","0","1000","1000","black","legacy","legacy","legacy","0","PO","uniform","0","undefined","undefined","undefined","undefined","0","[true_response]","1","21","0","0","0","0","21","0","0","0","0","21","21","0","21","21","Wed Nov 17 08:47:24 2021","The main experiment item","yes","Sentence_verification.osexp","/Users/ethan/Documents/GitHub/OpenSesame/SentenceVerification","z","no","mono","no","18","no","white","no","no","768","legacy","21","21","/Users/ethan/Documents/GitHub/OpenSesame/SentenceVerification/subject-0.csv","legacy","Lentiform Loewenfeld","3.3.11a1","0","None","NA","space","space","space","space","None","m","1000","NA","5252","9317","10221","5171","1000","1036","2","legacy","1024","2","48000","-16","experiment","A tugboat can pull.","0","even","102919","32704","NA","NA","2596","102413","2701","7982","17308","27533","103119","104119","2695","101373","101369","Sentence_verification","0","22000","22","TRUE","m","yes","1024"
"0","0","1000","1000","black","legacy","legacy","legacy","0","S1","uniform","0","undefined","undefined","undefined","undefined","0","[true_response]","1","22","0","0","0","0","22","0","0","0","0","22","22","0","22","22","Wed Nov 17 08:47:24 2021","The main experiment item","yes","Sentence_verification.osexp","/Users/ethan/Documents/GitHub/OpenSesame/SentenceVerification","z","no","mono","no","18","no","white","no","no","768","legacy","22","22","/Users/ethan/Documents/GitHub/OpenSesame/SentenceVerification/subject-0.csv","legacy","Lentiform Loewenfeld","3.3.11a1","0","None","NA","space","space","space","space","None","m","1000","NA","5252","9317","10221","5171","1000","1123","2","legacy","1024","2","48000","-16","experiment","A revolver is a gun.","0","even","105813","32704","NA","NA","2596","105309","2701","7982","17308","27533","106013","107013","2695","104181","104177","Sentence_verification","0","23000","23","TRUE","m","yes","1024"
"0","0","1000","1000","black","legacy","legacy","legacy","0","P2","uniform","0","undefined","undefined","undefined","undefined","0","[true_response]","1","23","0","0","0","0","23","0","0","0","0","23","23","0","23","23","Wed Nov 17 08:47:24 2021","The main experiment item","yes","Sentence_verification.osexp","/Users/ethan/Documents/GitHub/OpenSesame/SentenceVerification","z","no","mono","no","18","no","white","no","no","768","legacy","23","23","/Users/ethan/Documents/GitHub/OpenSesame/SentenceVerification/subject-0.csv","legacy","Lentiform Loewenfeld","3.3.11a1","0","None","NA","space","space","space","space","None","m","1000","NA","5252","9317","10221","5171","1000","878","2","legacy","1024","2","48000","-16","experiment","Gin is wet.","0","even","108453","32704","NA","NA","2596","107948","2701","7982","17308","27533","108653","109653","2695","107066","107063","Sentence_verification","0","24000","24","TRUE","m","yes","1024"
"0","0","1000","1000","black","legacy","legacy","legacy","0","P1","uniform","0","undefined","undefined","undefined","undefined","0","[true_response]","1","24","0","0","0","0","24","0","0","0","0","24","24","0","24","24","Wed Nov 17 08:47:24 2021","The main experiment item","yes","Sentence_verification.osexp","/Users/ethan/Documents/GitHub/OpenSesame/SentenceVerification","z","no","mono","no","18","no","white","no","no","768","legacy","24","24","/Users/ethan/Documents/GitHub/OpenSesame/SentenceVerification/subject-0.csv","legacy","Lentiform Loewenfeld","3.3.11a1","0","None","NA","space","space","space","space","None","m","1000","NA","5252","9317","10221","5171","1000","932","2","legacy","1024","2","48000","-16","experiment","Taffy is sweet. ","0","even","111153","32704","NA","NA","2596","110649","2701","7982","17308","27533","111353","112353","2695","109712","109708","Sentence_verification","0","25000","25","TRUE","m","yes","1024"
"0","0","1000","1000","black","legacy","legacy","legacy","0","S2","uniform","0","undefined","undefined","undefined","undefined","0","[false_response]","1","25","0","0","0","0","25","0","0","0","0","25","25","0","25","25","Wed Nov 17 08:47:24 2021","The main experiment item","yes","Sentence_verification.osexp","/Users/ethan/Documents/GitHub/OpenSesame/SentenceVerification","z","no","mono","no","18","no","white","no","no","768","legacy","25","25","/Users/ethan/Documents/GitHub/OpenSesame/SentenceVerification/subject-0.csv","legacy","Lentiform Loewenfeld","3.3.11a1","0","None","NA","space","space","space","space","None","z","1000","NA","5252","9317","10221","5171","1000","1399","2","legacy","1024","2","48000","-16","experiment","A mesquite is a mineral.","0","even","114318","32704","NA","NA","2596","113814","2701","7982","17308","27533","114519","115519","2695","112410","112406","Sentence_verification","0","26000","26","FALSE","m","yes","1024"
"0","0","1000","1000","black","legacy","legacy","legacy","0","S2","uniform","0","undefined","undefined","undefined","undefined","0","[true_response]","1","26","0","0","0","0","26","0","0","0","0","26","26","0","26","26","Wed Nov 17 08:47:24 2021","The main experiment item","yes","Sentence_verification.osexp","/Users/ethan/Documents/GitHub/OpenSesame/SentenceVerification","z","no","mono","no","18","no","white","no","no","768","legacy","26","26","/Users/ethan/Documents/GitHub/OpenSesame/SentenceVerification/subject-0.csv","legacy","Lentiform Loewenfeld","3.3.11a1","0","None","NA","space","space","space","space","None","m","1000","NA","5252","9317","10221","5171","1000","870","2","legacy","1024","2","48000","-16","experiment","An elm is a plant.","0","even","116961","32704","NA","NA","2596","116454","2701","7982","17308","27533","117161","118161","2695","115580","115575","Sentence_verification","0","27000","27","TRUE","m","yes","1024"
"0","0","1000","1000","black","legacy","legacy","legacy","0","PO","uniform","0","undefined","undefined","undefined","undefined","0","[false_response]","1","27","0","0","0","0","27","0","0","0","0","27","27","0","27","27","Wed Nov 17 08:47:24 2021","The main experiment item","yes","Sentence_verification.osexp","/Users/ethan/Documents/GitHub/OpenSesame/SentenceVerification","z","no","mono","no","18","no","white","no","no","768","legacy","27","27","/Users/ethan/Documents/GitHub/OpenSesame/SentenceVerification/subject-0.csv","legacy","Lentiform Loewenfeld","3.3.11a1","0","None","NA","space","space","space","space","None","z","1000","NA","5252","9317","10221","5171","1000","1349","2","legacy","1024","2","48000","-16","experiment","Miami has snow.","0","even","120079","32704","NA","NA","2596","119574","2701","7982","17308","27533","120279","121279","2695","118221","118217","Sentence_verification","0","28000","28","FALSE","m","yes","1024"
"0","0","1000","1000","black","legacy","legacy","legacy","0","P1","uniform","0","undefined","undefined","undefined","undefined","0","[false_response]","1","28","0","0","0","0","28","0","0","0","0","28","28","0","28","28","Wed Nov 17 08:47:24 2021","The main experiment item","yes","Sentence_verification.osexp","/Users/ethan/Documents/GitHub/OpenSesame/SentenceVerification","z","no","mono","no","18","no","white","no","no","768","legacy","28","28","/Users/ethan/Documents/GitHub/OpenSesame/SentenceVerification/subject-0.csv","legacy","Lentiform Loewenfeld","3.3.11a1","0","None","NA","space","space","space","space","None","z","1000","NA","5252","9317","10221","5171","1000","1756","2","legacy","1024","2","48000","-16","experiment","A dove has fins.","0","even","123603","32704","NA","NA","2596","123099","2701","7982","17308","27533","123803","124803","2695","121339","121335","Sentence_verification","0","29000","29","FALSE","m","yes","1024"
"0","0","1000","1000","black","legacy","legacy","legacy","0","P1","uniform","0","undefined","undefined","undefined","undefined","0","[true_response]","1","29","0","0","0","0","29","0","0","0","0","29","29","0","29","29","Wed Nov 17 08:47:24 2021","The main experiment item","yes","Sentence_verification.osexp","/Users/ethan/Documents/GitHub/OpenSesame/SentenceVerification","z","no","mono","no","18","no","white","no","no","768","legacy","29","29","/Users/ethan/Documents/GitHub/OpenSesame/SentenceVerification/subject-0.csv","legacy","Lentiform Loewenfeld","3.3.11a1","0","None","NA","space","space","space","space","None","m","1000","NA","5252","9317","10221","5171","1000","1809","2","legacy","1024","2","48000","-16","experiment","A schooner has a rudder.","0","even","127173","32704","NA","NA","2596","126669","2701","7982","17308","27533","127373","128373","2695","124855","124851","Sentence_verification","0","30000","30","TRUE","m","yes","1024"
"0","0","1000","1000","black","legacy","legacy","legacy","0","S1","uniform","0","undefined","undefined","undefined","undefined","0","[true_response]","1","30","0","0","0","0","30","0","0","0","0","30","30","0","30","30","Wed Nov 17 08:47:24 2021","The main experiment item","yes","Sentence_verification.osexp","/Users/ethan/Documents/GitHub/OpenSesame/SentenceVerification","z","no","mono","no","18","no","white","no","no","768","legacy","30","30","/Users/ethan/Documents/GitHub/OpenSesame/SentenceVerification/subject-0.csv","legacy","Lentiform Loewenfeld","3.3.11a1","0","None","NA","space","space","space","space","None","m","1000","NA","5252","9317","10221","5171","1000","1025","2","legacy","1024","2","48000","-16","experiment","Baltimore is a city.","0","even","129963","32704","NA","NA","2596","129459","2701","7982","17308","27533","130163","131163","2695","128429","128424","Sentence_verification","0","31000","31","TRUE","m","yes","1024"
"0","0","1000","1000","black","legacy","legacy","legacy","0","P1","uniform","0","undefined","undefined","undefined","undefined","0","[false_response]","0","31","0","0","0","0","31","0","0","0","0","31","31","0","31","31","Wed Nov 17 08:47:24 2021","The main experiment item","yes","Sentence_verification.osexp","/Users/ethan/Documents/GitHub/OpenSesame/SentenceVerification","z","no","mono","no","18","no","white","no","no","768","legacy","31","31","/Users/ethan/Documents/GitHub/OpenSesame/SentenceVerification/subject-0.csv","legacy","Lentiform Loewenfeld","3.3.11a1","0","None","NA","space","space","space","space","None","m","1000","NA","5252","9317","10221","5171","1000","885","2","legacy","1024","2","48000","-16","experiment","A canoe has a sail.","0","even","132618","32704","NA","NA","2596","132114","2701","7982","17308","27533","132819","133819","2695","131225","131220","Sentence_verification","0","32000","32","FALSE","m","yes","1024"
"0","0","1000","1000","black","legacy","legacy","legacy","0","S2","uniform","0","undefined","undefined","undefined","undefined","0","[false_response]","1","32","0","0","0","0","32","0","0","0","0","32","32","0","32","32","Wed Nov 17 08:47:24 2021","The main experiment item","yes","Sentence_verification.osexp","/Users/ethan/Documents/GitHub/OpenSesame/SentenceVerification","z","no","mono","no","18","no","white","no","no","768","legacy","32","32","/Users/ethan/Documents/GitHub/OpenSesame/SentenceVerification/subject-0.csv","legacy","Lentiform Loewenfeld","3.3.11a1","0","None","NA","space","space","space","space","None","z","1000","NA","5252","9317","10221","5171","1000","1939","2","legacy","1024","2","48000","-16","experiment","Cognac is gas.","0","even","136322","32704","NA","NA","2596","135819","2701","7982","17308","27533","136522","137522","2695","133876","133871","Sentence_verification","0","33000","33","FALSE","m","yes","1024"
"0","0","1000","1000","black","legacy","legacy","legacy","0","P1","uniform","0","undefined","undefined","undefined","undefined","0","[false_response]","1","33","0","0","0","0","33","0","0","0","0","33","33","0","33","33","Wed Nov 17 08:47:24 2021","The main experiment item","yes","Sentence_verification.osexp","/Users/ethan/Documents/GitHub/OpenSesame/SentenceVerification","z","no","mono","no","18","no","white","no","no","768","legacy","33","33","/Users/ethan/Documents/GitHub/OpenSesame/SentenceVerification/subject-0.csv","legacy","Lentiform Loewenfeld","3.3.11a1","0","None","NA","space","space","space","space","None","z","1000","NA","5252","9317","10221","5171","1000","1221","2","legacy","1024","2","48000","-16","experiment","A daisy is black.","0","even","139309","32704","NA","NA","2596","138804","2701","7982","17308","27533","139509","140509","2695","137579","137575","Sentence_verification","0","34000","34","FALSE","m","yes","1024"
"0","0","1000","1000","black","legacy","legacy","legacy","0","PO","uniform","0","undefined","undefined","undefined","undefined","0","[false_response]","1","34","0","0","0","0","34","0","0","0","0","34","34","0","34","34","Wed Nov 17 08:47:24 2021","The main experiment item","yes","Sentence_verification.osexp","/Users/ethan/Documents/GitHub/OpenSesame/SentenceVerification","z","no","mono","no","18","no","white","no","no","768","legacy","34","34","/Users/ethan/Documents/GitHub/OpenSesame/SentenceVerification/subject-0.csv","legacy","Lentiform Loewenfeld","3.3.11a1","0","None","NA","space","space","space","space","None","z","1000","NA","5252","9317","10221","5171","1000","1441","2","legacy","1024","2","48000","-16","experiment","Checkers has pawns.","0","even","142533","32704","NA","NA","2596","142029","2701","7982","17308","27533","142733","143733","2695","140584","140580","Sentence_verification","0","35000","35","FALSE","m","yes","1024"
"0","0","1000","1000","black","legacy","legacy","legacy","0","S1","uniform","0","undefined","undefined","undefined","undefined","0","[true_response]","1","35","0","0","0","0","35","0","0","0","0","35","35","0","35","35","Wed Nov 17 08:47:24 2021","The main experiment item","yes","Sentence_verification.osexp","/Users/ethan/Documents/GitHub/OpenSesame/SentenceVerification","z","no","mono","no","18","no","white","no","no","768","legacy","35","35","/Users/ethan/Documents/GitHub/OpenSesame/SentenceVerification/subject-0.csv","legacy","Lentiform Loewenfeld","3.3.11a1","0","None","NA","space","space","space","space","None","m","1000","NA","5252","9317","10221","5171","1000","1756","2","legacy","1024","2","48000","-16","experiment","Belgium is a nation.","0","even","146059","32704","NA","NA","2596","145554","2701","7982","17308","27533","146260","147260","2695","143794","143789","Sentence_verification","0","36000","36","TRUE","m","yes","1024"
"0","0","1000","1000","black","legacy","legacy","legacy","0","PO","uniform","0","undefined","undefined","undefined","undefined","0","[true_response]","1","36","0","0","0","0","36","0","0","0","0","36","36","0","36","36","Wed Nov 17 08:47:24 2021","The main experiment item","yes","Sentence_verification.osexp","/Users/ethan/Documents/GitHub/OpenSesame/SentenceVerification","z","no","mono","no","18","no","white","no","no","768","legacy","36","36","/Users/ethan/Documents/GitHub/OpenSesame/SentenceVerification/subject-0.csv","legacy","Lentiform Loewenfeld","3.3.11a1","0","None","NA","space","space","space","space","None","m","1000","NA","5252","9317","10221","5171","1000","1032","2","legacy","1024","2","48000","-16","experiment","A canary can sing.","0","even","148863","32704","NA","NA","2596","148359","2701","7982","17308","27533","149063","150063","2695","147323","147318","Sentence_verification","0","37000","37","TRUE","m","yes","1024"
"0","0","1000","1000","black","legacy","legacy","legacy","0","SO","uniform","0","undefined","undefined","undefined","undefined","0","[false_response]","0","37","0","0","0","0","37","0","0","0","0","37","37","0","37","37","Wed Nov 17 08:47:24 2021","The main experiment item","yes","Sentence_verification.osexp","/Users/ethan/Documents/GitHub/OpenSesame/SentenceVerification","z","no","mono","no","18","no","white","no","no","768","legacy","37","37","/Users/ethan/Documents/GitHub/OpenSesame/SentenceVerification/subject-0.csv","legacy","Lentiform Loewenfeld","3.3.11a1","0","None","NA","space","space","space","space","None","m","1000","NA","5252","9317","10221","5171","1000","1268","2","legacy","1024","2","48000","-16","experiment","A parakeet is an eagle.","0","even","151894","32704","NA","NA","2596","151390","2701","7982","17308","27533","152094","153094","2695","150117","150112","Sentence_verification","0","38000","38","FALSE","m","yes","1024"
"0","0","1000","1000","black","legacy","legacy","legacy","0","P2","uniform","0","undefined","undefined","undefined","undefined","0","[false_response]","1","38","0","0","0","0","38","0","0","0","0","38","38","0","38","38","Wed Nov 17 08:47:24 2021","The main experiment item","yes","Sentence_verification.osexp","/Users/ethan/Documents/GitHub/OpenSesame/SentenceVerification","z","no","mono","no","18","no","white","no","no","768","legacy","38","38","/Users/ethan/Documents/GitHub/OpenSesame/SentenceVerification/subject-0.csv","legacy","Lentiform Loewenfeld","3.3.11a1","0","None","NA","space","space","space","space","None","z","1000","NA","5252","9317","10221","5171","1000","2662","2","legacy","1024","2","48000","-16","experiment","A brigade can fly.","0","even","156319","32704","NA","NA","2596","155816","2701","7982","17308","27533","156519","157519","2695","153148","153145","Sentence_verification","0","39000","39","FALSE","m","yes","1024"
"0","0","1000","1000","black","legacy","legacy","legacy","0","PO","uniform","0","undefined","undefined","undefined","undefined","0","[false_response]","1","39","0","0","0","0","39","0","0","0","0","39","39","0","39","39","Wed Nov 17 08:47:24 2021","The main experiment item","yes","Sentence_verification.osexp","/Users/ethan/Documents/GitHub/OpenSesame/SentenceVerification","z","no","mono","no","18","no","white","no","no","768","legacy","39","39","/Users/ethan/Documents/GitHub/OpenSesame/SentenceVerification/subject-0.csv","legacy","Lentiform Loewenfeld","3.3.11a1","0","None","NA","space","space","space","space","None","z","1000","NA","5252","9317","10221","5171","1000","1174","2","legacy","1024","2","48000","-16","experiment","A tuna is purple.","0","even","159258","32704","NA","NA","2596","158754","2701","7982","17308","27533","159458","160458","2695","157576","157572","Sentence_verification","0","40000","40","FALSE","m","yes","1024"
"0","0","1000","1000","black","legacy","legacy","legacy","0","PO","uniform","0","undefined","undefined","undefined","undefined","0","[true_response]","1","40","0","0","0","0","40","0","0","0","0","40","40","0","40","40","Wed Nov 17 08:47:24 2021","The main experiment item","yes","Sentence_verification.osexp","/Users/ethan/Documents/GitHub/OpenSesame/SentenceVerification","z","no","mono","no","18","no","white","no","no","768","legacy","40","40","/Users/ethan/Documents/GitHub/OpenSesame/SentenceVerification/subject-0.csv","legacy","Lentiform Loewenfeld","3.3.11a1","0","None","NA","space","space","space","space","None","m","1000","NA","5252","9317","10221","5171","1000","1250","2","legacy","1024","2","48000","-16","experiment","A sunflower is yellow. ","0","even","162273","32704","NA","NA","2596","161769","2701","7982","17308","27533","162473","163473","2695","160515","160510","Sentence_verification","0","41000","41","TRUE","m","yes","1024"
"0","0","1000","1000","black","legacy","legacy","legacy","0","SO","uniform","0","undefined","undefined","undefined","undefined","0","[false_response]","1","41","0","0","0","0","41","0","0","0","0","41","41","0","41","41","Wed Nov 17 08:47:24 2021","The main experiment item","yes","Sentence_verification.osexp","/Users/ethan/Documents/GitHub/OpenSesame/SentenceVerification","z","no","mono","no","18","no","white","no","no","768","legacy","41","41","/Users/ethan/Documents/GitHub/OpenSesame/SentenceVerification/subject-0.csv","legacy","Lentiform Loewenfeld","3.3.11a1","0","None","NA","space","space","space","space","None","z","1000","NA","5252","9317","10221","5171","1000","1480","2","legacy","1024","2","48000","-16","experiment","Hockey is a race.","0","even","165513","32704","NA","NA","2596","165009","2701","7982","17308","27533","165713","166713","2695","163525","163521","Sentence_verification","0","42000","42","FALSE","m","yes","1024"
"0","0","1000","1000","black","legacy","legacy","legacy","0","SO","uniform","0","undefined","undefined","undefined","undefined","0","[true_response]","1","42","0","0","0","0","42","0","0","0","0","42","42","0","42","42","Wed Nov 17 08:47:24 2021","The main experiment item","yes","Sentence_verification.osexp","/Users/ethan/Documents/GitHub/OpenSesame/SentenceVerification","z","no","mono","no","18","no","white","no","no","768","legacy","42","42","/Users/ethan/Documents/GitHub/OpenSesame/SentenceVerification/subject-0.csv","legacy","Lentiform Loewenfeld","3.3.11a1","0","None","NA","space","space","space","space","None","m","1000","NA","5252","9317","10221","5171","1000","1441","2","legacy","1024","2","48000","-16","experiment","A gardenia is a gardenia. ","0","even","168723","32704","NA","NA","2596","168219","2701","7982","17308","27533","168923","169923","2695","166774","166770","Sentence_verification","0","43000","43","TRUE","m","yes","1024"
"0","0","1000.0454545454545","1000.0454545454545","black","legacy","legacy","legacy","0","S1","uniform","0","undefined","undefined","undefined","undefined","0","[true_response]","1","43","0","0","0","0","43","0","0","0","0","43","43","0","43","43","Wed Nov 17 08:47:24 2021","The main experiment item","yes","Sentence_verification.osexp","/Users/ethan/Documents/GitHub/OpenSesame/SentenceVerification","z","no","mono","no","18","no","white","no","no","768","legacy","43","43","/Users/ethan/Documents/GitHub/OpenSesame/SentenceVerification/subject-0.csv","legacy","Lentiform Loewenfeld","3.3.11a1","0","None","NA","space","space","space","space","None","m","1002","NA","5252","9317","10221","5171","1002","1591","2","legacy","1024","2","48000","-16","experiment","An ocean liner is a boat.","0","even","172083","32704","NA","NA","2596","171579","2701","7982","17308","27533","172283","173286","2695","169984","169979","Sentence_verification","0","44002","44","TRUE","m","yes","1024"
"0","0","1000.0444444444445","1000.0444444444445","black","legacy","legacy","legacy","0","P1","uniform","0","undefined","undefined","undefined","undefined","0","[false_response]","1","44","0","0","0","0","44","0","0","0","0","44","44","0","44","44","Wed Nov 17 08:47:24 2021","The main experiment item","yes","Sentence_verification.osexp","/Users/ethan/Documents/GitHub/OpenSesame/SentenceVerification","z","no","mono","no","18","no","white","no","no","768","legacy","44","44","/Users/ethan/Documents/GitHub/OpenSesame/SentenceVerification/subject-0.csv","legacy","Lentiform Loewenfeld","3.3.11a1","0","None","NA","space","space","space","space","None","z","1000","NA","5252","9317","10221","5171","1000","1075","2","legacy","1024","2","48000","-16","experiment","A shrimp can fly.","0","even","174934","32704","NA","NA","2596","174430","2701","7982","17308","27533","175134","176134","2695","173350","173346","Sentence_verification","0","45002","45","FALSE","m","yes","1024"
"0","0","1000.0434782608696","1000.0434782608696","black","legacy","legacy","legacy","0","SO","uniform","0","undefined","undefined","undefined","undefined","0","[false_response]","1","45","0","0","0","0","45","0","0","0","0","45","45","0","45","45","Wed Nov 17 08:47:24 2021","The main experiment item","yes","Sentence_verification.osexp","/Users/ethan/Documents/GitHub/OpenSesame/SentenceVerification","z","no","mono","no","18","no","white","no","no","768","legacy","45","45","/Users/ethan/Documents/GitHub/OpenSesame/SentenceVerification/subject-0.csv","legacy","Lentiform Loewenfeld","3.3.11a1","0","None","NA","space","space","space","space","None","z","1000","NA","5252","9317","10221","5171","1000","1056","2","legacy","1024","2","48000","-16","experiment","Canvas is wool.","0","even","177753","32704","NA","NA","2596","177249","2701","7982","17308","27533","177953","178953","2695","176189","176184","Sentence_verification","0","46002","46","FALSE","m","yes","1024"
"0","0","1000.0425531914893","1000.0425531914893","black","legacy","legacy","legacy","0","S1","uniform","0","undefined","undefined","undefined","undefined","0","[true_response]","1","46","0","0","0","0","46","0","0","0","0","46","46","0","46","46","Wed Nov 17 08:47:24 2021","The main experiment item","yes","Sentence_verification.osexp","/Users/ethan/Documents/GitHub/OpenSesame/SentenceVerification","z","no","mono","no","18","no","white","no","no","768","legacy","46","46","/Users/ethan/Documents/GitHub/OpenSesame/SentenceVerification/subject-0.csv","legacy","Lentiform Loewenfeld","3.3.11a1","0","None","NA","space","space","space","space","None","m","1000","NA","5252","9317","10221","5171","1000","1112","2","legacy","1024","2","48000","-16","experiment","A gumdrop is candy.","0","even","180633","32704","NA","NA","2596","180129","2701","7982","17308","27533","180833","181833","2695","179012","179008","Sentence_verification","0","47002","47","TRUE","m","yes","1024"
"0","0","1000.0416666666666","1000.0416666666666","black","legacy","legacy","legacy","0","P1","uniform","0","undefined","undefined","undefined","undefined","0","[true_response]","1","47","0","0","0","0","47","0","0","0","0","47","47","0","47","47","Wed Nov 17 08:47:24 2021","The main experiment item","yes","Sentence_verification.osexp","/Users/ethan/Documents/GitHub/OpenSesame/SentenceVerification","z","no","mono","no","18","no","white","no","no","768","legacy","47","47","/Users/ethan/Documents/GitHub/OpenSesame/SentenceVerification/subject-0.csv","legacy","Lentiform Loewenfeld","3.3.11a1","0","None","NA","space","space","space","space","None","m","1000","NA","5252","9317","10221","5171","1000","1111","2","legacy","1024","2","48000","-16","experiment","Italy has borders.","0","even","183523","32704","NA","NA","2596","183010","2701","7982","17308","27533","183723","184723","2695","181894","181890","Sentence_verification","0","48002","48","TRUE","m","yes","1024"
"0","0","1000.0408163265306","1000.0408163265306","black","legacy","legacy","legacy","0","SO","uniform","0","undefined","undefined","undefined","undefined","0","[false_response]","1","48","0","0","0","0","48","0","0","0","0","48","48","0","48","48","Wed Nov 17 08:47:24 2021","The main experiment item","yes","Sentence_verification.osexp","/Users/ethan/Documents/GitHub/OpenSesame/SentenceVerification","z","no","mono","no","18","no","white","no","no","768","legacy","48","48","/Users/ethan/Documents/GitHub/OpenSesame/SentenceVerification/subject-0.csv","legacy","Lentiform Loewenfeld","3.3.11a1","0","None","NA","space","space","space","space","None","z","1000","NA","5252","9317","10221","5171","1000","1327","2","legacy","1024","2","48000","-16","experiment","A petunia is thorny.","0","even","186619","32704","NA","NA","2596","186114","2701","7982","17308","27533","186819","187819","2695","184783","184778","Sentence_verification","0","49002","49","FALSE","m","yes","1024"
"0","0","1000.04","1000.04","black","legacy","legacy","legacy","0","PO","uniform","0","undefined","undefined","undefined","undefined","0","[true_response]","1","49","0","0","0","0","49","0","0","0","0","49","49","0","49","49","Wed Nov 17 08:47:24 2021","The main experiment item","yes","Sentence_verification.osexp","/Users/ethan/Documents/GitHub/OpenSesame/SentenceVerification","z","no","mono","no","18","no","white","no","no","768","legacy","49","49","/Users/ethan/Documents/GitHub/OpenSesame/SentenceVerification/subject-0.csv","legacy","Lentiform Loewenfeld","3.3.11a1","0","None","NA","space","space","space","space","None","m","1000","NA","5252","9317","10221","5171","1000","1476","2","legacy","1024","2","48000","-16","experiment","A lollypop has a stick. ","0","even","189859","32704","NA","NA","2596","189355","2701","7982","17308","27533","190059","191059","2695","187874","187870","Sentence_verification","0","50002","50","TRUE","m","yes","1024"
"0","0","1000.0392156862745","1000.0392156862745","black","legacy","legacy","legacy","0","SO","uniform","0","undefined","undefined","undefined","undefined","0","[true_response]","1","50","0","0","0","0","50","0","0","0","0","50","50","0","50","50","Wed Nov 17 08:47:24 2021","The main experiment item","yes","Sentence_verification.osexp","/Users/ethan/Documents/GitHub/OpenSesame/SentenceVerification","z","no","mono","no","18","no","white","no","no","768","legacy","50","50","/Users/ethan/Documents/GitHub/OpenSesame/SentenceVerification/subject-0.csv","legacy","Lentiform Loewenfeld","3.3.11a1","0","None","NA","space","space","space","space","None","m","1000","NA","5252","9317","10221","5171","1000","726","2","legacy","1024","2","48000","-16","experiment","Chess is chess. ","0","even","192348","32704","NA","NA","2596","191845","2701","7982","17308","27533","192548","193548","2695","191114","191109","Sentence_verification","0","51002","51","TRUE","m","yes","1024"
"0","0","1000.0384615384615","1000.0384615384615","black","legacy","legacy","legacy","0","P2","uniform","0","undefined","undefined","undefined","undefined","0","[true_response]","1","51","0","0","0","0","51","0","0","0","0","51","51","0","51","51","Wed Nov 17 08:47:24 2021","The main experiment item","yes","Sentence_verification.osexp","/Users/ethan/Documents/GitHub/OpenSesame/SentenceVerification","z","no","mono","no","18","no","white","no","no","768","legacy","51","51","/Users/ethan/Documents/GitHub/OpenSesame/SentenceVerification/subject-0.csv","legacy","Lentiform Loewenfeld","3.3.11a1","0","None","NA","space","space","space","space","None","m","1000","NA","5252","9317","10221","5171","1000","1658","2","legacy","1024","2","48000","-16","experiment","A lieutenant can talk.","0","even","195768","32704","NA","NA","2596","195264","2701","7982","17308","27533","195968","196968","2695","193602","193598","Sentence_verification","0","52002","52","TRUE","m","yes","1024"
"0","0","1000.0377358490566","1000.0377358490566","black","legacy","legacy","legacy","0","PO","uniform","0","undefined","undefined","undefined","undefined","0","[true_response]","1","52","0","0","0","0","52","0","0","0","0","52","52","0","52","52","Wed Nov 17 08:47:24 2021","The main experiment item","yes","Sentence_verification.osexp","/Users/ethan/Documents/GitHub/OpenSesame/SentenceVerification","z","no","mono","no","18","no","white","no","no","768","legacy","52","52","/Users/ethan/Documents/GitHub/OpenSesame/SentenceVerification/subject-0.csv","legacy","Lentiform Loewenfeld","3.3.11a1","0","None","NA","space","space","space","space","None","m","1000","NA","5252","9317","10221","5171","1000","1426","2","legacy","1024","2","48000","-16","experiment","Football has goals. ","0","even","198963","32704","NA","NA","2596","198460","2701","7982","17308","27533","199163","200163","2695","197029","197025","Sentence_verification","0","53002","53","TRUE","m","yes","1024"
"0","0","1000.0370370370371","1000.0370370370371","black","legacy","legacy","legacy","0","PO","uniform","0","undefined","undefined","undefined","undefined","0","[false_response]","1","53","0","0","0","0","53","0","0","0","0","53","53","0","53","53","Wed Nov 17 08:47:24 2021","The main experiment item","yes","Sentence_verification.osexp","/Users/ethan/Documents/GitHub/OpenSesame/SentenceVerification","z","no","mono","no","18","no","white","no","no","768","legacy","53","53","/Users/ethan/Documents/GitHub/OpenSesame/SentenceVerification/subject-0.csv","legacy","Lentiform Loewenfeld","3.3.11a1","0","None","NA","space","space","space","space","None","z","1000","NA","5252","9317","10221","5171","1000","1733","2","legacy","1024","2","48000","-16","experiment","Polyester is grown.","0","even","202463","32704","NA","NA","2596","201960","2701","7982","17308","27533","202664","203664","2695","200217","200213","Sentence_verification","0","54002","54","FALSE","m","yes","1024"
"0","0","1000.0363636363636","1000.0363636363636","black","legacy","legacy","legacy","0","SO","uniform","0","undefined","undefined","undefined","undefined","0","[true_response]","1","54","0","0","0","0","54","0","0","0","0","54","54","0","54","54","Wed Nov 17 08:47:24 2021","The main experiment item","yes","Sentence_verification.osexp","/Users/ethan/Documents/GitHub/OpenSesame/SentenceVerification","z","no","mono","no","18","no","white","no","no","768","legacy","54","54","/Users/ethan/Documents/GitHub/OpenSesame/SentenceVerification/subject-0.csv","legacy","Lentiform Loewenfeld","3.3.11a1","0","None","NA","space","space","space","space","None","m","1000","NA","5252","9317","10221","5171","1000","1057","2","legacy","1024","2","48000","-16","experiment","A sailboat is a sailboat.","0","even","205279","32704","NA","NA","2596","204775","2701","7982","17308","27533","205479","206479","2695","203714","203711","Sentence_verification","0","55002","55","TRUE","m","yes","1024"
"0","0","1000.0357142857143","1000.0357142857143","black","legacy","legacy","legacy","0","PO","uniform","0","undefined","undefined","undefined","undefined","0","[true_response]","1","55","0","0","0","0","55","0","0","0","0","55","55","0","55","55","Wed Nov 17 08:47:24 2021","The main experiment item","yes","Sentence_verification.osexp","/Users/ethan/Documents/GitHub/OpenSesame/SentenceVerification","z","no","mono","no","18","no","white","no","no","768","legacy","55","55","/Users/ethan/Documents/GitHub/OpenSesame/SentenceVerification/subject-0.csv","legacy","Lentiform Loewenfeld","3.3.11a1","0","None","NA","space","space","space","space","None","m","1000","NA","5252","9317","10221","5171","1000","1250","2","legacy","1024","2","48000","-16","experiment","San Francisco has fog. ","0","even","208294","32704","NA","NA","2596","207790","2701","7982","17308","27533","208494","209494","2695","206535","206530","Sentence_verification","0","56002","56","TRUE","m","yes","1024"
"0","0","1000.0350877192982","1000.0350877192982","black","legacy","legacy","legacy","0","P1","uniform","0","undefined","undefined","undefined","undefined","0","[true_response]","1","56","0","0","0","0","56","0","0","0","0","56","56","0","56","56","Wed Nov 17 08:47:24 2021","The main experiment item","yes","Sentence_verification.osexp","/Users/ethan/Documents/GitHub/OpenSesame/SentenceVerification","z","no","mono","no","18","no","white","no","no","768","legacy","56","56","/Users/ethan/Documents/GitHub/OpenSesame/SentenceVerification/subject-0.csv","legacy","Lentiform Loewenfeld","3.3.11a1","0","None","NA","space","space","space","space","None","m","1000","NA","5252","9317","10221","5171","1000","1159","2","legacy","1024","2","48000","-16","experiment","Basketball has rules. ","0","even","211219","32704","NA","NA","2596","210715","2701","7982","17308","27533","211419","212419","2695","209551","209547","Sentence_verification","0","57002","57","TRUE","m","yes","1024"
"0","0","1000.0344827586207","1000.0344827586207","black","legacy","legacy","legacy","0","S1","uniform","0","undefined","undefined","undefined","undefined","0","[false_response]","1","57","0","0","0","0","57","0","0","0","0","57","57","0","57","57","Wed Nov 17 08:47:24 2021","The main experiment item","yes","Sentence_verification.osexp","/Users/ethan/Documents/GitHub/OpenSesame/SentenceVerification","z","no","mono","no","18","no","white","no","no","768","legacy","57","57","/Users/ethan/Documents/GitHub/OpenSesame/SentenceVerification/subject-0.csv","legacy","Lentiform Loewenfeld","3.3.11a1","0","None","NA","space","space","space","space","None","z","1000","NA","5252","9317","10221","5171","1000","1469","2","legacy","1024","2","48000","-16","experiment","A zinnia is a mammal.","0","even","214459","32704","NA","NA","2596","213955","2701","7982","17308","27533","214659","215659","2695","212481","212477","Sentence_verification","0","58002","58","FALSE","m","yes","1024"
"0","0","1000.0338983050848","1000.0338983050848","black","legacy","legacy","legacy","0","S1","uniform","0","undefined","undefined","undefined","undefined","0","[false_response]","1","58","0","0","0","0","58","0","0","0","0","58","58","0","58","58","Wed Nov 17 08:47:24 2021","The main experiment item","yes","Sentence_verification.osexp","/Users/ethan/Documents/GitHub/OpenSesame/SentenceVerification","z","no","mono","no","18","no","white","no","no","768","legacy","58","58","/Users/ethan/Documents/GitHub/OpenSesame/SentenceVerification/subject-0.csv","legacy","Lentiform Loewenfeld","3.3.11a1","0","None","NA","space","space","space","space","None","z","1000","NA","5252","9317","10221","5171","1000","1324","2","legacy","1024","2","48000","-16","experiment","A mockingbird is a snake.","0","even","217549","32704","NA","NA","2596","217045","2701","7982","17308","27533","217749","218749","2695","215716","215711","Sentence_verification","0","59002","59","FALSE","m","yes","1024"
"0","0","1000.0333333333333","1000.0333333333333","black","legacy","legacy","legacy","0","S2","uniform","0","undefined","undefined","undefined","undefined","0","[false_response]","1","59","0","0","0","0","59","0","0","0","0","59","59","0","59","59","Wed Nov 17 08:47:24 2021","The main experiment item","yes","Sentence_verification.osexp","/Users/ethan/Documents/GitHub/OpenSesame/SentenceVerification","z","no","mono","no","18","no","white","no","no","768","legacy","59","59","/Users/ethan/Documents/GitHub/OpenSesame/SentenceVerification/subject-0.csv","legacy","Lentiform Loewenfeld","3.3.11a1","0","None","NA","space","space","space","space","None","z","1000","NA","5252","9317","10221","5171","1000","1089","2","legacy","1024","2","48000","-16","experiment","A general is a monkey.","0","even","220399","32704","NA","NA","2596","219895","2701","7982","17308","27533","220599","221599","2695","218802","218798","Sentence_verification","0","60002","60","FALSE","m","yes","1024"
"0","0","1000.0327868852459","1000.0327868852459","black","legacy","legacy","legacy","0","PO","uniform","0","undefined","undefined","undefined","undefined","0","[false_response]","1","60","0","0","0","0","60","0","0","0","0","60","60","0","60","60","Wed Nov 17 08:47:24 2021","The main experiment item","yes","Sentence_verification.osexp","/Users/ethan/Documents/GitHub/OpenSesame/SentenceVerification","z","no","mono","no","18","no","white","no","no","768","legacy","60","60","/Users/ethan/Documents/GitHub/OpenSesame/SentenceVerification/subject-0.csv","legacy","Lentiform Loewenfeld","3.3.11a1","0","None","NA","space","space","space","space","None","z","1000","NA","5252","9317","10221","5171","1000","1133","2","legacy","1024","2","48000","-16","experiment","Fudge is sour.","0","even","223293","32704","NA","NA","2596","222790","2701","7982","17308","27533","223494","224494","2695","221652","221648","Sentence_verification","0","61002","61","FALSE","m","yes","1024"
"0","0","1000.0322580645161","1000.0322580645161","black","legacy","legacy","legacy","0","S1","uniform","0","undefined","undefined","undefined","undefined","0","[false_response]","0","61","0","0","0","0","61","0","0","0","0","61","61","0","61","61","Wed Nov 17 08:47:24 2021","The main experiment item","yes","Sentence_verification.osexp","/Users/ethan/Documents/GitHub/OpenSesame/SentenceVerification","z","no","mono","no","18","no","white","no","no","768","legacy","61","61","/Users/ethan/Documents/GitHub/OpenSesame/SentenceVerification/subject-0.csv","legacy","Lentiform Loewenfeld","3.3.11a1","0","None","NA","space","space","space","space","None","m","1000","NA","5252","9317","10221","5171","1000","801","2","legacy","1024","2","48000","-16","experiment","Peru is a city.","0","even","225859","32704","NA","NA","2596","225355","2701","7982","17308","27533","226059","227059","2695","224549","224544","Sentence_verification","0","62002","62","FALSE","m","yes","1024"
"0","0","1000.031746031746","1000.031746031746","black","legacy","legacy","legacy","0","P1","uniform","0","undefined","undefined","undefined","undefined","0","[true_response]","1","62","0","0","0","0","62","0","0","0","0","62","62","0","62","62","Wed Nov 17 08:47:24 2021","The main experiment item","yes","Sentence_verification.osexp","/Users/ethan/Documents/GitHub/OpenSesame/SentenceVerification","z","no","mono","no","18","no","white","no","no","768","legacy","62","62","/Users/ethan/Documents/GitHub/OpenSesame/SentenceVerification/subject-0.csv","legacy","Lentiform Loewenfeld","3.3.11a1","0","None","NA","space","space","space","space","None","m","1000","NA","5252","9317","10221","5171","1000","2826","2","legacy","1024","2","48000","-16","experiment","A violet has a stem. ","0","even","230449","32704","NA","NA","2596","229945","2701","7982","17308","27533","230649","231649","2695","227114","227109","Sentence_verification","0","63002","63","TRUE","m","yes","1024"
"0","0","1000.03125","1000.03125","black","legacy","legacy","legacy","0","SO","uniform","0","undefined","undefined","undefined","undefined","0","[true_response]","1","63","0","0","0","0","63","0","0","0","0","63","63","0","63","63","Wed Nov 17 08:47:24 2021","The main experiment item","yes","Sentence_verification.osexp","/Users/ethan/Documents/GitHub/OpenSesame/SentenceVerification","z","no","mono","no","18","no","white","no","no","768","legacy","63","63","/Users/ethan/Documents/GitHub/OpenSesame/SentenceVerification/subject-0.csv","legacy","Lentiform Loewenfeld","3.3.11a1","0","None","NA","space","space","space","space","None","m","1000","NA","5252","9317","10221","5171","1000","771","2","legacy","1024","2","48000","-16","experiment","England is England.","0","even","232985","32704","NA","NA","2596","232480","2701","7982","17308","27533","233185","234185","2695","231704","231700","Sentence_verification","0","64002","64","TRUE","m","yes","1024"
"0","0","1000.0307692307692","1000.0307692307692","black","legacy","legacy","legacy","0","P2","uniform","0","undefined","undefined","undefined","undefined","0","[true_response]","0","64","0","0","0","0","64","0","0","0","0","64","64","0","64","64","Wed Nov 17 08:47:24 2021","The main experiment item","yes","Sentence_verification.osexp","/Users/ethan/Documents/GitHub/OpenSesame/SentenceVerification","z","no","mono","no","18","no","white","no","no","768","legacy","64","64","/Users/ethan/Documents/GitHub/OpenSesame/SentenceVerification/subject-0.csv","legacy","Lentiform Loewenfeld","3.3.11a1","0","None","NA","space","space","space","space","None","z","1000","NA","5252","9317","10221","5171","1000","951","2","legacy","1024","2","48000","-16","experiment","A birch has seeds.","0","even","235701","32704","NA","NA","2596","235195","2701","7982","17308","27533","235901","236901","2695","234240","234235","Sentence_verification","0","65002","65","TRUE","m","yes","1024"
"0","0","1000.030303030303","1000.030303030303","black","legacy","legacy","legacy","0","PO","uniform","0","undefined","undefined","undefined","undefined","0","[false_response]","1","65","0","0","0","0","65","0","0","0","0","65","65","0","65","65","Wed Nov 17 08:47:24 2021","The main experiment item","yes","Sentence_verification.osexp","/Users/ethan/Documents/GitHub/OpenSesame/SentenceVerification","z","no","mono","no","18","no","white","no","no","768","legacy","65","65","/Users/ethan/Documents/GitHub/OpenSesame/SentenceVerification/subject-0.csv","legacy","Lentiform Loewenfeld","3.3.11a1","0","None","NA","space","space","space","space","None","z","1000","NA","5252","9317","10221","5171","1000","1256","2","legacy","1024","2","48000","-16","experiment","A rose has bark.","0","even","238728","32704","NA","NA","2596","238224","2701","7982","17308","27533","238928","239928","2695","236964","236958","Sentence_verification","0","66002","66","FALSE","m","yes","1024"
"0","0","1000.0298507462686","1000.0298507462686","black","legacy","legacy","legacy","0","S1","uniform","0","undefined","undefined","undefined","undefined","0","[false_response]","0","66","0","0","0","0","66","0","0","0","0","66","66","0","66","66","Wed Nov 17 08:47:24 2021","The main experiment item","yes","Sentence_verification.osexp","/Users/ethan/Documents/GitHub/OpenSesame/SentenceVerification","z","no","mono","no","18","no","white","no","no","768","legacy","66","66","/Users/ethan/Documents/GitHub/OpenSesame/SentenceVerification/subject-0.csv","legacy","Lentiform Loewenfeld","3.3.11a1","0","None","NA","space","space","space","space","None","m","1000","NA","5252","9317","10221","5171","1000","1268","2","legacy","1024","2","48000","-16","experiment","Aarhus is a region.","0","even","241759","32704","NA","NA","2596","241255","2701","7982","17308","27533","241959","242959","2695","239983","239979","Sentence_verification","0","67002","67","FALSE","m","yes","1024"
"0","0","1000.0294117647059","1000.0294117647059","black","legacy","legacy","legacy","0","SO","uniform","0","undefined","undefined","undefined","undefined","0","[false_response]","1","67","0","0","0","0","67","0","0","0","0","67","67","0","67","67","Wed Nov 17 08:47:24 2021","The main experiment item","yes","Sentence_verification.osexp","/Users/ethan/Documents/GitHub/OpenSesame/SentenceVerification","z","no","mono","no","18","no","white","no","no","768","legacy","67","67","/Users/ethan/Documents/GitHub/OpenSesame/SentenceVerification/subject-0.csv","legacy","Lentiform Loewenfeld","3.3.11a1","0","None","NA","space","space","space","space","None","z","1000","NA","5252","9317","10221","5171","1000","3682","2","legacy","1024","2","48000","-16","experiment","Caramel is cotton candy.","0","even","247205","32704","NA","NA","2596","246701","2701","7982","17308","27533","247405","248405","2695","243014","243009","Sentence_verification","0","68002","68","FALSE","m","yes","1024"
"0","0","1000.0289855072464","1000.0289855072464","black","legacy","legacy","legacy","0","P1","uniform","0","undefined","undefined","undefined","undefined","0","[false_response]","1","68","0","0","0","0","68","0","0","0","0","68","68","0","68","68","Wed Nov 17 08:47:24 2021","The main experiment item","yes","Sentence_verification.osexp","/Users/ethan/Documents/GitHub/OpenSesame/SentenceVerification","z","no","mono","no","18","no","white","no","no","768","legacy","68","68","/Users/ethan/Documents/GitHub/OpenSesame/SentenceVerification/subject-0.csv","legacy","Lentiform Loewenfeld","3.3.11a1","0","None","NA","space","space","space","space","None","z","1000","NA","5252","9317","10221","5171","1000","1133","2","legacy","1024","2","48000","-16","experiment","London has pig farms.","0","even","250114","32704","NA","NA","2596","249610","2701","7982","17308","27533","250314","251314","2695","248472","248468","Sentence_verification","0","69002","69","FALSE","m","yes","1024"
"0","0","1000.0285714285715","1000.0285714285715","black","legacy","legacy","legacy","0","SO","uniform","0","undefined","undefined","undefined","undefined","0","[false_response]","1","69","0","0","0","0","69","0","0","0","0","69","69","0","69","69","Wed Nov 17 08:47:24 2021","The main experiment item","yes","Sentence_verification.osexp","/Users/ethan/Documents/GitHub/OpenSesame/SentenceVerification","z","no","mono","no","18","no","white","no","no","768","legacy","69","69","/Users/ethan/Documents/GitHub/OpenSesame/SentenceVerification/subject-0.csv","legacy","Lentiform Loewenfeld","3.3.11a1","0","None","NA","space","space","space","space","None","z","1000","NA","5252","9317","10221","5171","1000","1424","2","legacy","1024","2","48000","-16","experiment","An apple is an orange.","0","even","253309","32704","NA","NA","2596","252805","2701","7982","17308","27533","253509","254509","2695","251376","251372","Sentence_verification","0","70002","70","FALSE","m","yes","1024"
"0","0","1000.0281690140845","1000.0281690140845","black","legacy","legacy","legacy","0","P1","uniform","0","undefined","undefined","undefined","undefined","0","[true_response]","1","70","0","0","0","0","70","0","0","0","0","70","70","0","70","70","Wed Nov 17 08:47:24 2021","The main experiment item","yes","Sentence_verification.osexp","/Users/ethan/Documents/GitHub/OpenSesame/SentenceVerification","z","no","mono","no","18","no","white","no","no","768","legacy","70","70","/Users/ethan/Documents/GitHub/OpenSesame/SentenceVerification/subject-0.csv","legacy","Lentiform Loewenfeld","3.3.11a1","0","None","NA","space","space","space","space","None","m","1000","NA","5252","9317","10221","5171","1000","1200","2","legacy","1024","2","48000","-16","experiment","Pittsburg has people. ","0","even","256279","32704","NA","NA","2596","255775","2701","7982","17308","27533","256479","257479","2695","254570","254566","Sentence_verification","0","71002","71","TRUE","m","yes","1024"
"0","0","1000.0277777777778","1000.0277777777778","black","legacy","legacy","legacy","0","S1","uniform","0","undefined","undefined","undefined","undefined","0","[false_response]","1","71","0","0","0","0","71","0","0","0","0","71","71","0","71","71","Wed Nov 17 08:47:24 2021","The main experiment item","yes","Sentence_verification.osexp","/Users/ethan/Documents/GitHub/OpenSesame/SentenceVerification","z","no","mono","no","18","no","white","no","no","768","legacy","71","71","/Users/ethan/Documents/GitHub/OpenSesame/SentenceVerification/subject-0.csv","legacy","Lentiform Loewenfeld","3.3.11a1","0","None","NA","space","space","space","space","None","z","1000","NA","5252","9317","10221","5171","1000","997","2","legacy","1024","2","48000","-16","experiment","A submarine is a car.","0","even","259040","32704","NA","NA","2596","258536","2701","7982","17308","27533","259240","260240","2695","257534","257530","Sentence_verification","0","72002","72","FALSE","m","yes","1024"
"0","0","1000.027397260274","1000.027397260274","black","legacy","legacy","legacy","0","P1","uniform","0","undefined","undefined","undefined","undefined","0","[true_response]","0","72","0","0","0","0","72","0","0","0","0","72","72","0","72","72","Wed Nov 17 08:47:24 2021","The main experiment item","yes","Sentence_verification.osexp","/Users/ethan/Documents/GitHub/OpenSesame/SentenceVerification","z","no","mono","no","18","no","white","no","no","768","legacy","72","72","/Users/ethan/Documents/GitHub/OpenSesame/SentenceVerification/subject-0.csv","legacy","Lentiform Loewenfeld","3.3.11a1","0","None","NA","space","space","space","space","None","z","1000","NA","5252","9317","10221","5171","1000","1465","2","legacy","1024","2","48000","-16","experiment","A shark has gills. ","0","even","262285","32704","NA","NA","2596","261776","2701","7982","17308","27533","262485","263485","2695","260306","260302","Sentence_verification","0","73002","73","TRUE","m","yes","1024"
"0","0","1000.027027027027","1000.027027027027","black","legacy","legacy","legacy","0","S1","uniform","0","undefined","undefined","undefined","undefined","0","[true_response]","1","73","0","0","0","0","73","0","0","0","0","73","73","0","73","73","Wed Nov 17 08:47:24 2021","The main experiment item","yes","Sentence_verification.osexp","/Users/ethan/Documents/GitHub/OpenSesame/SentenceVerification","z","no","mono","no","18","no","white","no","no","768","legacy","73","73","/Users/ethan/Documents/GitHub/OpenSesame/SentenceVerification/subject-0.csv","legacy","Lentiform Loewenfeld","3.3.11a1","0","None","NA","space","space","space","space","None","m","1000","NA","5252","9317","10221","5171","1000","2949","2","legacy","1024","2","48000","-16","experiment","Velvet is a fabric.","0","even","267007","32704","NA","NA","2596","266501","2701","7982","17308","27533","267207","268207","2695","263547","263542","Sentence_verification","0","74002","74","TRUE","m","yes","1024"
"0","0","1000.0266666666666","1000.0266666666666","black","legacy","legacy","legacy","0","SO","uniform","0","undefined","undefined","undefined","undefined","0","[true_response]","1","74","0","0","0","0","74","0","0","0","0","74","74","0","74","74","Wed Nov 17 08:47:24 2021","The main experiment item","yes","Sentence_verification.osexp","/Users/ethan/Documents/GitHub/OpenSesame/SentenceVerification","z","no","mono","no","18","no","white","no","no","768","legacy","74","74","/Users/ethan/Documents/GitHub/OpenSesame/SentenceVerification/subject-0.csv","legacy","Lentiform Loewenfeld","3.3.11a1","0","None","NA","space","space","space","space","None","m","1000","NA","5252","9317","10221","5171","1000","891","2","legacy","1024","2","48000","-16","experiment","Licorice is licorice. ","0","even","269659","32704","NA","NA","2596","269155","2701","7982","17308","27533","269860","270860","2695","268260","268256","Sentence_verification","0","75002","75","TRUE","m","yes","1024"
"0","0","1000.0263157894736","1000.0263157894736","black","legacy","legacy","legacy","0","S1","uniform","0","undefined","undefined","undefined","undefined","0","[false_response]","1","75","0","0","0","0","75","0","0","0","0","75","75","0","75","75","Wed Nov 17 08:47:24 2021","The main experiment item","yes","Sentence_verification.osexp","/Users/ethan/Documents/GitHub/OpenSesame/SentenceVerification","z","no","mono","no","18","no","white","no","no","768","legacy","75","75","/Users/ethan/Documents/GitHub/OpenSesame/SentenceVerification/subject-0.csv","legacy","Lentiform Loewenfeld","3.3.11a1","0","None","NA","space","space","space","space","None","z","1000","NA","5252","9317","10221","5171","1000","1305","2","legacy","1024","2","48000","-16","experiment","A catfish is a whale.","0","even","272734","32704","NA","NA","2596","272230","2701","7982","17308","27533","272934","273934","2695","270921","270917","Sentence_verification","0","76002","76","FALSE","m","yes","1024"
"0","0","1000.025974025974","1000.025974025974","black","legacy","legacy","legacy","0","P1","uniform","0","undefined","undefined","undefined","undefined","0","[false_response]","1","76","0","0","0","0","76","0","0","0","0","76","76","0","76","76","Wed Nov 17 08:47:24 2021","The main experiment item","yes","Sentence_verification.osexp","/Users/ethan/Documents/GitHub/OpenSesame/SentenceVerification","z","no","mono","no","18","no","white","no","no","768","legacy","76","76","/Users/ethan/Documents/GitHub/OpenSesame/SentenceVerification/subject-0.csv","legacy","Lentiform Loewenfeld","3.3.11a1","0","None","NA","space","space","space","space","None","z","1000","NA","5252","9317","10221","5171","1000","1605","2","legacy","1024","2","48000","-16","experiment","Ping Pong has baskets.","0","even","276114","32704","NA","NA","2596","275610","2701","7982","17308","27533","276314","277314","2695","273996","273992","Sentence_verification","0","77002","77","FALSE","m","yes","1024"
"0","0","1000.025641025641","1000.025641025641","black","legacy","legacy","legacy","0","PO","uniform","0","undefined","undefined","undefined","undefined","0","[false_response]","1","77","0","0","0","0","77","0","0","0","0","77","77","0","77","77","Wed Nov 17 08:47:24 2021","The main experiment item","yes","Sentence_verification.osexp","/Users/ethan/Documents/GitHub/OpenSesame/SentenceVerification","z","no","mono","no","18","no","white","no","no","768","legacy","77","77","/Users/ethan/Documents/GitHub/OpenSesame/SentenceVerification/subject-0.csv","legacy","Lentiform Loewenfeld","3.3.11a1","0","None","NA","space","space","space","space","None","z","1000","NA","5252","9317","10221","5171","1000","1781","2","legacy","1024","2","48000","-16","experiment","A berry is large.","0","even","279665","32704","NA","NA","2596","279161","2701","7982","17308","27533","279865","280865","2695","277375","277370","Sentence_verification","0","78002","78","FALSE","m","yes","1024"
"0","0","1000.0253164556962","1000.0253164556962","black","legacy","legacy","legacy","0","P1","uniform","0","undefined","undefined","undefined","undefined","0","[false_response]","1","78","0","0","0","0","78","0","0","0","0","78","78","0","78","78","Wed Nov 17 08:47:24 2021","The main experiment item","yes","Sentence_verification.osexp","/Users/ethan/Documents/GitHub/OpenSesame/SentenceVerification","z","no","mono","no","18","no","white","no","no","768","legacy","78","78","/Users/ethan/Documents/GitHub/OpenSesame/SentenceVerification/subject-0.csv","legacy","Lentiform Loewenfeld","3.3.11a1","0","None","NA","space","space","space","space","None","z","1000","NA","5252","9317","10221","5171","1000","3878","2","legacy","1024","2","48000","-16","experiment","Japan has Biden.","0","even","285305","32704","NA","NA","2596","284801","2701","7982","17308","27533","285505","286505","2695","280918","280914","Sentence_verification","0","79002","79","FALSE","m","yes","1024"
"0","0","1000.025","1000.025","black","legacy","legacy","legacy","0","PO","uniform","0","undefined","undefined","undefined","undefined","0","[true_response]","1","79","0","0","0","0","79","0","0","0","0","79","79","0","79","79","Wed Nov 17 08:47:24 2021","The main experiment item","yes","Sentence_verification.osexp","/Users/ethan/Documents/GitHub/OpenSesame/SentenceVerification","z","no","mono","no","18","no","white","no","no","768","legacy","79","79","/Users/ethan/Documents/GitHub/OpenSesame/SentenceVerification/subject-0.csv","legacy","Lentiform Loewenfeld","3.3.11a1","0","None","NA","space","space","space","space","None","m","1000","NA","5252","9317","10221","5171","1000","1816","2","legacy","1024","2","48000","-16","experiment","A salmon is pink. ","0","even","288890","32704","NA","NA","2596","288386","2701","7982","17308","27533","289090","290090","2695","286565","286560","Sentence_verification","0","80002","80","TRUE","m","yes","1024"
"0","0","1000.0246913580247","1000.0246913580247","black","legacy","legacy","legacy","0","S2","uniform","0","undefined","undefined","undefined","undefined","0","[true_response]","1","80","0","0","0","0","80","0","0","0","0","80","80","0","80","80","Wed Nov 17 08:47:24 2021","The main experiment item","yes","Sentence_verification.osexp","/Users/ethan/Documents/GitHub/OpenSesame/SentenceVerification","z","no","mono","no","18","no","white","no","no","768","legacy","80","80","/Users/ethan/Documents/GitHub/OpenSesame/SentenceVerification/subject-0.csv","legacy","Lentiform Loewenfeld","3.3.11a1","0","None","NA","space","space","space","space","None","m","1000","NA","5252","9317","10221","5171","1000","2677","2","legacy","1024","2","48000","-16","experiment","Vermouth is liquid.","0","even","293330","32704","NA","NA","2596","292825","2701","7982","17308","27533","293530","294530","2695","290144","290140","Sentence_verification","0","81002","81","TRUE","m","yes","1024"
"0","0","1000.0243902439024","1000.0243902439024","black","legacy","legacy","legacy","0","S1","uniform","0","undefined","undefined","undefined","undefined","0","[true_response]","1","81","0","0","0","0","81","0","0","0","0","81","81","0","81","81","Wed Nov 17 08:47:24 2021","The main experiment item","yes","Sentence_verification.osexp","/Users/ethan/Documents/GitHub/OpenSesame/SentenceVerification","z","no","mono","no","18","no","white","no","no","768","legacy","81","81","/Users/ethan/Documents/GitHub/OpenSesame/SentenceVerification/subject-0.csv","legacy","Lentiform Loewenfeld","3.3.11a1","0","None","NA","space","space","space","space","None","m","1000","NA","5252","9317","10221","5171","1000","1117","2","legacy","1024","2","48000","-16","experiment","A trout is a fish.","0","even","296210","32704","NA","NA","2596","295706","2701","7982","17308","27533","296410","297410","2695","294585","294581","Sentence_verification","0","82002","82","TRUE","m","yes","1024"
"0","0","1000.0240963855422","1000.0240963855422","black","legacy","legacy","legacy","0","S1","uniform","0","undefined","undefined","undefined","undefined","0","[false_response]","1","82","0","0","0","0","82","0","0","0","0","82","82","0","82","82","Wed Nov 17 08:47:24 2021","The main experiment item","yes","Sentence_verification.osexp","/Users/ethan/Documents/GitHub/OpenSesame/SentenceVerification","z","no","mono","no","18","no","white","no","no","768","legacy","82","82","/Users/ethan/Documents/GitHub/OpenSesame/SentenceVerification/subject-0.csv","legacy","Lentiform Loewenfeld","3.3.11a1","0","None","NA","space","space","space","space","None","z","1000","NA","5252","9317","10221","5171","1000","2495","2","legacy","1024","2","48000","-16","experiment","Denim is a food.","0","even","300470","32704","NA","NA","2596","299966","2701","7982","17308","27533","300671","301671","2695","297466","297462","Sentence_verification","0","83002","83","FALSE","m","yes","1024"
"0","0","1000.0238095238095","1000.0238095238095","black","legacy","legacy","legacy","0","P1","uniform","0","undefined","undefined","undefined","undefined","0","[false_response]","1","83","0","0","0","0","83","0","0","0","0","83","83","0","83","83","Wed Nov 17 08:47:24 2021","The main experiment item","yes","Sentence_verification.osexp","/Users/ethan/Documents/GitHub/OpenSesame/SentenceVerification","z","no","mono","no","18","no","white","no","no","768","legacy","83","83","/Users/ethan/Documents/GitHub/OpenSesame/SentenceVerification/subject-0.csv","legacy","Lentiform Loewenfeld","3.3.11a1","0","None","NA","space","space","space","space","None","z","1000","NA","5252","9317","10221","5171","1000","1626","2","legacy","1024","2","48000","-16","experiment","Satin is rough.","0","even","303860","32704","NA","NA","2596","303356","2701","7982","17308","27533","304060","305060","2695","301725","301721","Sentence_verification","0","84002","84","FALSE","m","yes","1024"
"0","0","1000.0235294117647","1000.0235294117647","black","legacy","legacy","legacy","0","PO","uniform","0","undefined","undefined","undefined","undefined","0","[true_response]","1","84","0","0","0","0","84","0","0","0","0","84","84","0","84","84","Wed Nov 17 08:47:24 2021","The main experiment item","yes","Sentence_verification.osexp","/Users/ethan/Documents/GitHub/OpenSesame/SentenceVerification","z","no","mono","no","18","no","white","no","no","768","legacy","84","84","/Users/ethan/Documents/GitHub/OpenSesame/SentenceVerification/subject-0.csv","legacy","Lentiform Loewenfeld","3.3.11a1","0","None","NA","space","space","space","space","None","m","1000","NA","5252","9317","10221","5171","1000","1529","2","legacy","1024","2","48000","-16","experiment","A rifle is long. ","0","even","307159","32704","NA","NA","2596","306655","2701","7982","17308","27533","307359","308359","2695","305122","305118","Sentence_verification","0","85002","85","TRUE","m","yes","1024"
"0","0","1000.0232558139535","1000.0232558139535","black","legacy","legacy","legacy","0","SO","uniform","0","undefined","undefined","undefined","undefined","0","[true_response]","1","85","0","0","0","0","85","0","0","0","0","85","85","0","85","85","Wed Nov 17 08:47:24 2021","The main experiment item","yes","Sentence_verification.osexp","/Users/ethan/Documents/GitHub/OpenSesame/SentenceVerification","z","no","mono","no","18","no","white","no","no","768","legacy","85","85","/Users/ethan/Documents/GitHub/OpenSesame/SentenceVerification/subject-0.csv","legacy","Lentiform Loewenfeld","3.3.11a1","0","None","NA","space","space","space","space","None","m","1000","NA","5252","9317","10221","5171","1000","983","2","legacy","1024","2","48000","-16","experiment","A sardine is a sardine. ","0","even","309906","32704","NA","NA","2596","309402","2701","7982","17308","27533","310106","311106","2695","308413","308410","Sentence_verification","0","86002","86","TRUE","m","yes","1024"
"0","0","1000.0229885057471","1000.0229885057471","black","legacy","legacy","legacy","0","P1","uniform","0","undefined","undefined","undefined","undefined","0","[true_response]","1","86","0","0","0","0","86","0","0","0","0","86","86","0","86","86","Wed Nov 17 08:47:24 2021","The main experiment item","yes","Sentence_verification.osexp","/Users/ethan/Documents/GitHub/OpenSesame/SentenceVerification","z","no","mono","no","18","no","white","no","no","768","legacy","86","86","/Users/ethan/Documents/GitHub/OpenSesame/SentenceVerification/subject-0.csv","legacy","Lentiform Loewenfeld","3.3.11a1","0","None","NA","space","space","space","space","None","m","1000","NA","5252","9317","10221","5171","1000","1574","2","legacy","1024","2","48000","-16","experiment","A wren can fly.","0","even","313281","32704","NA","NA","2596","312746","2701","7982","17308","27533","313481","314481","2695","311167","311163","Sentence_verification","0","87002","87","TRUE","m","yes","1024"
"0","0","1000.0227272727273","1000.0227272727273","black","legacy","legacy","legacy","0","PO","uniform","0","undefined","undefined","undefined","undefined","0","[false_response]","1","87","0","0","0","0","87","0","0","0","0","87","87","0","87","87","Wed Nov 17 08:47:24 2021","The main experiment item","yes","Sentence_verification.osexp","/Users/ethan/Documents/GitHub/OpenSesame/SentenceVerification","z","no","mono","no","18","no","white","no","no","768","legacy","87","87","/Users/ethan/Documents/GitHub/OpenSesame/SentenceVerification/subject-0.csv","legacy","Lentiform Loewenfeld","3.3.11a1","0","None","NA","space","space","space","space","None","z","1000","NA","5252","9317","10221","5171","1000","3863","2","legacy","1024","2","48000","-16","experiment","Russia is an island.","0","even","318906","32704","NA","NA","2596","318402","2701","7982","17308","27533","319106","320106","2695","314534","314530","Sentence_verification","0","88002","88","FALSE","m","yes","1024"
"0","0","1000.0224719101124","1000.0224719101124","black","legacy","legacy","legacy","0","PO","uniform","0","undefined","undefined","undefined","undefined","0","[true_response]","1","88","0","0","0","0","88","0","0","0","0","88","88","0","88","88","Wed Nov 17 08:47:24 2021","The main experiment item","yes","Sentence_verification.osexp","/Users/ethan/Documents/GitHub/OpenSesame/SentenceVerification","z","no","mono","no","18","no","white","no","no","768","legacy","88","88","/Users/ethan/Documents/GitHub/OpenSesame/SentenceVerification/subject-0.csv","legacy","Lentiform Loewenfeld","3.3.11a1","0","None","NA","space","space","space","space","None","m","1000","NA","5252","9317","10221","5171","1000","1446","2","legacy","1024","2","48000","-16","experiment","France has DeGaulle.","0","even","322114","32704","NA","NA","2596","321611","2701","7982","17308","27533","322315","323315","2695","320160","320156","Sentence_verification","0","89002","89","TRUE","m","yes","1024"
"0","0","1000.0222222222222","1000.0222222222222","black","legacy","legacy","legacy","0","SO","uniform","0","undefined","undefined","undefined","undefined","0","[true_response]","1","89","0","0","0","0","89","0","0","0","0","89","89","0","89","89","Wed Nov 17 08:47:24 2021","The main experiment item","yes","Sentence_verification.osexp","/Users/ethan/Documents/GitHub/OpenSesame/SentenceVerification","z","no","mono","no","18","no","white","no","no","768","legacy","89","89","/Users/ethan/Documents/GitHub/OpenSesame/SentenceVerification/subject-0.csv","legacy","Lentiform Loewenfeld","3.3.11a1","0","None","NA","space","space","space","space","None","m","1000","NA","5252","9317","10221","5171","1000","824","2","legacy","1024","2","48000","-16","experiment","Boston is Boston. ","0","even","324714","32704","NA","NA","2596","324207","2701","7982","17308","27533","324914","325914","2695","323377","323372","Sentence_verification","0","90002","90","TRUE","m","yes","1024"
"0","0","1000.021978021978","1000.021978021978","black","legacy","legacy","legacy","0","P2","uniform","0","undefined","undefined","undefined","undefined","0","[false_response]","0","90","0","0","0","0","90","0","0","0","0","90","90","0","90","90","Wed Nov 17 08:47:24 2021","The main experiment item","yes","Sentence_verification.osexp","/Users/ethan/Documents/GitHub/OpenSesame/SentenceVerification","z","no","mono","no","18","no","white","no","no","768","legacy","90","90","/Users/ethan/Documents/GitHub/OpenSesame/SentenceVerification/subject-0.csv","legacy","Lentiform Loewenfeld","3.3.11a1","0","None","NA","space","space","space","space","None","m","1000","NA","5252","9317","10221","5171","1000","2240","2","legacy","1024","2","48000","-16","experiment","A sycamore has fruit.","0","even","328714","32704","NA","NA","2596","328211","2701","7982","17308","27533","328915","329915","2695","325966","325961","Sentence_verification","0","91002","91","FALSE","m","yes","1024"
"0","0","1000.0217391304348","1000.0217391304348","black","legacy","legacy","legacy","0","P1","uniform","0","undefined","undefined","undefined","undefined","0","[true_response]","1","91","0","0","0","0","91","0","0","0","0","91","91","0","91","91","Wed Nov 17 08:47:24 2021","The main experiment item","yes","Sentence_verification.osexp","/Users/ethan/Documents/GitHub/OpenSesame/SentenceVerification","z","no","mono","no","18","no","white","no","no","768","legacy","0","90","/Users/ethan/Documents/GitHub/OpenSesame/SentenceVerification/subject-0.csv","legacy","Lentiform Loewenfeld","3.3.11a1","0","None","space","space","space","space","space","None","m","1000","19048","5252","9317","10221","5171","1000","1423","2","legacy","1024","2","48000","-16","experiment","A truck has wheels.","0","even","350960","32704","349013","329963","2596","350456","2701","7982","17308","27533","351160","352160","2695","349028","349025","Sentence_verification","0","92002","92","TRUE","m","yes","1024"
"0","0","1000.0215053763441","1000.0215053763441","black","legacy","legacy","legacy","0","SO","uniform","0","undefined","undefined","undefined","undefined","0","[false_response]","1","92","0","0","0","0","92","0","0","0","0","92","92","0","92","92","Wed Nov 17 08:47:24 2021","The main experiment item","yes","Sentence_verification.osexp","/Users/ethan/Documents/GitHub/OpenSesame/SentenceVerification","z","no","mono","no","18","no","white","no","no","768","legacy","1","90","/Users/ethan/Documents/GitHub/OpenSesame/SentenceVerification/subject-0.csv","legacy","Lentiform Loewenfeld","3.3.11a1","0","None","space","space","space","space","space","None","z","1000","19048","5252","9317","10221","5171","1000","1897","2","legacy","1024","2","48000","-16","experiment","A diary is a thesaurus.","0","even","354620","32704","349013","329963","2596","354116","2701","7982","17308","27533","354820","355820","2695","352215","352211","Sentence_verification","0","93002","93","FALSE","m","yes","1024"
"0","0","1000.0212765957447","1000.0212765957447","black","legacy","legacy","legacy","0","SO","uniform","0","undefined","undefined","undefined","undefined","0","[true_response]","1","93","0","0","0","0","93","0","0","0","0","93","93","0","93","93","Wed Nov 17 08:47:24 2021","The main experiment item","yes","Sentence_verification.osexp","/Users/ethan/Documents/GitHub/OpenSesame/SentenceVerification","z","no","mono","no","18","no","white","no","no","768","legacy","2","90","/Users/ethan/Documents/GitHub/OpenSesame/SentenceVerification/subject-0.csv","legacy","Lentiform Loewenfeld","3.3.11a1","0","None","space","space","space","space","space","None","m","1000","19048","5252","9317","10221","5171","1000","1123","2","legacy","1024","2","48000","-16","experiment","Limestone is limestone.","0","even","357515","32704","349013","329963","2596","357010","2701","7982","17308","27533","357715","358715","2695","355883","355879","Sentence_verification","0","94002","94","TRUE","m","yes","1024"
"0","0","1000.021052631579","1000.021052631579","black","legacy","legacy","legacy","0","SO","uniform","0","undefined","undefined","undefined","undefined","0","[true_response]","1","94","0","0","0","0","94","0","0","0","0","94","94","0","94","94","Wed Nov 17 08:47:24 2021","The main experiment item","yes","Sentence_verification.osexp","/Users/ethan/Documents/GitHub/OpenSesame/SentenceVerification","z","no","mono","no","18","no","white","no","no","768","legacy","3","90","/Users/ethan/Documents/GitHub/OpenSesame/SentenceVerification/subject-0.csv","legacy","Lentiform Loewenfeld","3.3.11a1","0","None","space","space","space","space","space","None","m","1000","19048","5252","9317","10221","5171","1000","989","2","legacy","1024","2","48000","-16","experiment","A Chevrolet is a Chevrolet.","0","even","360259","32704","349013","329963","2596","359756","2701","7982","17308","27533","360459","361459","2695","358762","358759","Sentence_verification","0","95002","95","TRUE","m","yes","1024"
"0","0","1000.0208333333334","1000.0208333333334","black","legacy","legacy","legacy","0","PO","uniform","0","undefined","undefined","undefined","undefined","0","[true_response]","1","95","0","0","0","0","95","0","0","0","0","95","95","0","95","95","Wed Nov 17 08:47:24 2021","The main experiment item","yes","Sentence_verification.osexp","/Users/ethan/Documents/GitHub/OpenSesame/SentenceVerification","z","no","mono","no","18","no","white","no","no","768","legacy","4","90","/Users/ethan/Documents/GitHub/OpenSesame/SentenceVerification/subject-0.csv","legacy","Lentiform Loewenfeld","3.3.11a1","0","None","space","space","space","space","space","None","m","1000","19048","5252","9317","10221","5171","1000","1397","2","legacy","1024","2","48000","-16","experiment","A dictionary has definitions.","0","even","363425","32704","349013","329963","2596","362921","2701","7982","17308","27533","363625","364625","2695","361519","361515","Sentence_verification","0","96002","96","TRUE","m","yes","1024"
"0","0","1000.020618556701","1000.020618556701","black","legacy","legacy","legacy","0","SO","uniform","0","undefined","undefined","undefined","undefined","0","[true_response]","1","96","0","0","0","0","96","0","0","0","0","96","96","0","96","96","Wed Nov 17 08:47:24 2021","The main experiment item","yes","Sentence_verification.osexp","/Users/ethan/Documents/GitHub/OpenSesame/SentenceVerification","z","no","mono","no","18","no","white","no","no","768","legacy","5","90","/Users/ethan/Documents/GitHub/OpenSesame/SentenceVerification/subject-0.csv","legacy","Lentiform Loewenfeld","3.3.11a1","0","None","space","space","space","space","space","None","m","1000","19048","5252","9317","10221","5171","1000","686","2","legacy","1024","2","48000","-16","experiment","Peas are peas.","0","even","365886","32704","349013","329963","2596","365382","2701","7982","17308","27533","366086","367086","2695","364691","364677","Sentence_verification","0","97002","97","TRUE","m","yes","1024"
"0","0","1000.0204081632653","1000.0204081632653","black","legacy","legacy","legacy","0","P2","uniform","0","undefined","undefined","undefined","undefined","0","[true_response]","1","97","0","0","0","0","97","0","0","0","0","97","97","0","97","97","Wed Nov 17 08:47:24 2021","The main experiment item","yes","Sentence_verification.osexp","/Users/ethan/Documents/GitHub/OpenSesame/SentenceVerification","z","no","mono","no","18","no","white","no","no","768","legacy","6","90","/Users/ethan/Documents/GitHub/OpenSesame/SentenceVerification/subject-0.csv","legacy","Lentiform Loewenfeld","3.3.11a1","0","None","space","space","space","space","space","None","m","1000","19048","5252","9317","10221","5171","1000","1177","2","legacy","1024","2","48000","-16","experiment","Bread is digestable.","0","even","368826","32704","349013","329963","2596","368321","2701","7982","17308","27533","369026","370026","2695","367140","367135","Sentence_verification","0","98002","98","TRUE","m","yes","1024"
"0","0","1000.020202020202","1000.020202020202","black","legacy","legacy","legacy","0","S1","uniform","0","undefined","undefined","undefined","undefined","0","[true_response]","1","98","0","0","0","0","98","0","0","0","0","98","98","0","98","98","Wed Nov 17 08:47:24 2021","The main experiment item","yes","Sentence_verification.osexp","/Users/ethan/Documents/GitHub/OpenSesame/SentenceVerification","z","no","mono","no","18","no","white","no","no","768","legacy","7","90","/Users/ethan/Documents/GitHub/OpenSesame/SentenceVerification/subject-0.csv","legacy","Lentiform Loewenfeld","3.3.11a1","0","None","space","space","space","space","space","None","m","1000","19048","5252","9317","10221","5171","1000","1417","2","legacy","1024","2","48000","-16","experiment","A cedar is a tree.","0","even","372006","32704","349013","329963","2596","371502","2701","7982","17308","27533","372206","373206","2695","370080","370076","Sentence_verification","0","99002","99","TRUE","m","yes","1024"
"0","0","1000.02","1000.02","black","legacy","legacy","legacy","0","PO","uniform","0","undefined","undefined","undefined","undefined","0","[true_response]","1","99","0","0","0","0","99","0","0","0","0","99","99","0","99","99","Wed Nov 17 08:47:24 2021","The main experiment item","yes","Sentence_verification.osexp","/Users/ethan/Documents/GitHub/OpenSesame/SentenceVerification","z","no","mono","no","18","no","white","no","no","768","legacy","8","90","/Users/ethan/Documents/GitHub/OpenSesame/SentenceVerification/subject-0.csv","legacy","Lentiform Loewenfeld","3.3.11a1","0","None","space","space","space","space","space","None","m","1000","19048","5252","9317","10221","5171","1000","1024","2","legacy","1024","2","48000","-16","experiment","Champagne is sparkling.","0","even","374795","32704","349013","329963","2596","374291","2701","7982","17308","27533","374996","375996","2695","373263","373259","Sentence_verification","0","100002","100","TRUE","m","yes","1024"
"0","0","1000.019801980198","1000.019801980198","black","legacy","legacy","legacy","0","PO","uniform","0","undefined","undefined","undefined","undefined","0","[true_response]","1","100","0","0","0","0","100","0","0","0","0","100","100","0","100","100","Wed Nov 17 08:47:24 2021","The main experiment item","yes","Sentence_verification.osexp","/Users/ethan/Documents/GitHub/OpenSesame/SentenceVerification","z","no","mono","no","18","no","white","no","no","768","legacy","9","90","/Users/ethan/Documents/GitHub/OpenSesame/SentenceVerification/subject-0.csv","legacy","Lentiform Loewenfeld","3.3.11a1","0","None","space","space","space","space","space","None","m","1000","19048","5252","9317","10221","5171","1000","1259","2","legacy","1024","2","48000","-16","experiment","A limousine is long.","0","even","377826","32704","349013","329963","2596","377322","2701","7982","17308","27533","378026","379026","2695","376057","376052","Sentence_verification","0","101002","101","TRUE","m","yes","1024"
