acc,accuracy,average_response_time,avg_rt,background,bidi,block,canvas_backend,clock_backend,color_backend,compensation,coordinates,correct,correct_response,count_ISI,count_break1,count_break_2,count_correct_feedback,count_credits,count_experiment,count_experimentLoop,count_fixation,count_incorrect_feedback,count_instructions1,count_instructions2,count_keyboard_response,count_memory_set,count_new_logger,count_osweb,count_practiceLoop,count_practiceSequence,count_probe,count_thankYou,datetime,description,disable_garbage_collection,experiment_path,font_bold,font_family,font_italic,font_size,font_underline,foreground,form_clicks,fullscreen,height,keyboard_backend,mouse_backend,numberSet,opensesame_codename,opensesame_version,posInSet,present,response,response_break1,response_break_2,response_instructions1,response_instructions2,response_keyboard_response,response_time,response_time_break1,response_time_break_2,response_time_instructions1,response_time_instructions2,response_time_keyboard_response,round_decimals,sampler_backend,sessionid,setSize,sound_buf_size,sound_channels,sound_freq,sound_sample_size,start,subject_nr,subject_parity,target,time_ISI,time_break1,time_break_2,time_correct_feedback,time_experimentLoop,time_fixation,time_incorrect_feedback,time_instructions1,time_instructions2,time_keyboard_response,time_memory_set,time_new_logger,time_practiceLoop,time_probe,title,total_correct,total_response_time,total_responses,uniform_coordinates,width
0,0,898,898,black,no,practice,legacy,legacy,legacy,0,uniform,0,right,0,0,0,0,0,0,0,0,0,0,0,0,0,0,0,0,0,0,0,Wed Sep 23 2020 22:27:07 GMT+0200 (CEST),The main experiment item,yes,/Users/ethan/Documents/GitHub/OpenSesame/Sternberg/experiment_files,no,mono,no,18,no,white,no,no,768,legacy,legacy,2 9 4,osweb,1.3.8,3,y,left,,,right,,left,898,,,89681,,898,2,legacy,1600892911945,3,1024,2,48000,-16,experiment,1,odd,4,91997,,,,58,89777,,58,,94016,90784,94930,58,94016,Sternberg,0,898,1,yes,1024
50,50,694,694,black,no,practice,legacy,legacy,legacy,0,uniform,1,right,1,1,1,1,0,0,0,1,1,0,0,1,1,1,0,0,1,1,0,Wed Sep 23 2020 22:27:07 GMT+0200 (CEST),The main experiment item,yes,/Users/ethan/Documents/GitHub/OpenSesame/Sternberg/experiment_files,no,mono,no,18,no,white,no,no,768,legacy,legacy,4 3 1 7 9 8,osweb,1.3.8,1,y,right,,,right,,right,490,,,89681,,490,2,legacy,1600892911945,6,1024,2,48000,-16,experiment,1,odd,4,98197,,,,58,95974,94937,58,,100217,96983,100713,58,100216,Sternberg,1,1388,2,yes,1024
33,33,739,739,black,no,practice,legacy,legacy,legacy,0,uniform,0,left,2,2,2,2,0,0,0,2,2,0,0,2,2,2,0,0,2,2,0,Wed Sep 23 2020 22:27:07 GMT+0200 (CEST),The main experiment item,yes,/Users/ethan/Documents/GitHub/OpenSesame/Sternberg/experiment_files,no,mono,no,18,no,white,no,no,768,legacy,legacy,5 7 8 4 1 2,osweb,1.3.8,0,n,right,,,right,,right,829,,,89681,,829,2,legacy,1600892911945,6,1024,2,48000,-16,experiment,1,odd,6,103980,,,100718,58,101753,94937,58,,105999,102766,106828,58,105999,Sternberg,1,2217,3,yes,1024
50,50,857,857,black,no,practice,legacy,legacy,legacy,0,uniform,1,right,3,3,3,3,0,0,0,3,3,0,0,3,3,3,0,0,3,3,0,Wed Sep 23 2020 22:27:07 GMT+0200 (CEST),The main experiment item,yes,/Users/ethan/Documents/GitHub/OpenSesame/Sternberg/experiment_files,no,mono,no,18,no,white,no,no,768,legacy,legacy,6,osweb,1.3.8,1,y,right,,,right,,right,1210,,,89681,,1210,2,legacy,1600892911945,1,1024,2,48000,-16,experiment,1,odd,6,110097,,,100718,58,107870,106834,58,,112117,108882,113328,58,112117,Sternberg,2,3427,4,yes,1024
60,60,830,830,black,no,practice,legacy,legacy,legacy,0,uniform,1,left,4,4,4,4,0,0,0,4,4,0,0,4,4,4,0,0,4,4,0,Wed Sep 23 2020 22:27:07 GMT+0200 (CEST),The main experiment item,yes,/Users/ethan/Documents/GitHub/OpenSesame/Sternberg/experiment_files,no,mono,no,18,no,white,no,no,768,legacy,legacy,2 1,osweb,1.3.8,0,n,left,,,right,,left,724,,,89681,,724,2,legacy,1600892911945,2,1024,2,48000,-16,experiment,1,odd,5,116597,,,113333,58,114368,106834,58,,118617,115382,119345,58,118617,Sternberg,3,4151,5,yes,1024
67,67,830,830,black,no,practice,legacy,legacy,legacy,0,uniform,1,right,5,5,5,5,0,0,0,5,5,0,0,5,5,5,0,0,5,5,0,Wed Sep 23 2020 22:27:07 GMT+0200 (CEST),The main experiment item,yes,/Users/ethan/Documents/GitHub/OpenSesame/Sternberg/experiment_files,no,mono,no,18,no,white,no,no,768,legacy,legacy,1 5 2 9,osweb,1.3.8,2,y,right,,,right,,right,829,,,89681,,829,2,legacy,1600892911945,4,1024,2,48000,-16,experiment,1,odd,5,122613,,,119350,58,120384,106834,58,,124632,121399,125463,58,124631,Sternberg,4,4980,6,yes,1024
71,71,795,795,black,no,practice,legacy,legacy,legacy,0,uniform,1,left,6,6,6,6,0,0,0,6,6,0,0,6,6,6,0,0,6,6,0,Wed Sep 23 2020 22:27:07 GMT+0200 (CEST),The main experiment item,yes,/Users/ethan/Documents/GitHub/OpenSesame/Sternberg/experiment_files,no,mono,no,18,no,white,no,no,768,legacy,legacy,4 1 5,osweb,1.3.8,0,n,left,,,right,,left,584,,,89681,,584,2,legacy,1600892911945,3,1024,2,48000,-16,experiment,1,odd,2,128730,,,125467,58,126501,106834,58,,130749,127515,131346,58,130749,Sternberg,5,5564,7,yes,1024
75,75,773,773,black,no,practice,legacy,legacy,legacy,0,uniform,1,left,7,7,7,7,0,0,0,7,7,0,0,7,7,7,0,0,7,7,0,Wed Sep 23 2020 22:27:07 GMT+0200 (CEST),The main experiment item,yes,/Users/ethan/Documents/GitHub/OpenSesame/Sternberg/experiment_files,no,mono,no,18,no,white,no,no,768,legacy,legacy,5,osweb,1.3.8,0,n,left,,,right,,left,618,,,89681,,618,2,legacy,1600892911945,1,1024,2,48000,-16,experiment,1,odd,3,134611,,,131350,58,132382,106834,58,,136630,133396,137261,58,136630,Sternberg,6,6182,8,yes,1024
78,78,766,766,black,no,practice,legacy,legacy,legacy,0,uniform,1,right,8,8,8,8,0,0,0,8,8,0,0,8,8,8,0,0,8,8,0,Wed Sep 23 2020 22:27:07 GMT+0200 (CEST),The main experiment item,yes,/Users/ethan/Documents/GitHub/OpenSesame/Sternberg/experiment_files,no,mono,no,18,no,white,no,no,768,legacy,legacy,1 7 9 8 5,osweb,1.3.8,4,y,right,,,right,,right,710,,,89681,,710,2,legacy,1600892911945,5,1024,2,48000,-16,experiment,1,odd,8,140529,,,137264,58,138294,106834,58,,142547,139312,143261,58,142547,Sternberg,7,6892,9,yes,1024
70,70,782,782,black,no,practice,legacy,legacy,legacy,0,uniform,0,left,9,9,9,9,0,0,0,9,9,0,0,9,9,9,0,0,9,9,0,Wed Sep 23 2020 22:27:07 GMT+0200 (CEST),The main experiment item,yes,/Users/ethan/Documents/GitHub/OpenSesame/Sternberg/experiment_files,no,mono,no,18,no,white,no,no,768,legacy,legacy,3 1 9 4,osweb,1.3.8,0,n,right,,,right,,right,926,,,89681,,926,2,legacy,1600892911945,4,1024,2,48000,-16,experiment,1,odd,6,146529,,,143264,58,144300,106834,58,,148548,145313,149478,58,148548,Sternberg,7,7818,10,yes,1024
73,73,790,790,black,no,practice,legacy,legacy,legacy,0,uniform,1,right,10,10,10,10,0,0,0,10,10,0,0,10,10,10,0,0,10,10,0,Wed Sep 23 2020 22:27:07 GMT+0200 (CEST),The main experiment item,yes,/Users/ethan/Documents/GitHub/OpenSesame/Sternberg/experiment_files,no,mono,no,18,no,white,no,no,768,legacy,legacy,4 8,osweb,1.3.8,1,y,right,,,right,,right,867,,,89681,,867,2,legacy,1600892911945,2,1024,2,48000,-16,experiment,1,odd,4,152746,,,143264,58,150517,149480,58,,154765,151531,155645,58,154765,Sternberg,8,8685,11,yes,1024
75,75,780,780,black,no,practice,legacy,legacy,legacy,0,uniform,1,left,11,11,11,11,0,0,0,11,11,0,0,11,11,11,0,0,11,11,0,Wed Sep 23 2020 22:27:07 GMT+0200 (CEST),The main experiment item,yes,/Users/ethan/Documents/GitHub/OpenSesame/Sternberg/experiment_files,no,mono,no,18,no,white,no,no,768,legacy,legacy,9 6 7 4 5,osweb,1.3.8,0,n,left,,,right,,left,677,,,89681,,677,2,legacy,1600892911945,5,1024,2,48000,-16,experiment,1,odd,3,158912,,,155649,58,156685,149480,58,,160931,157698,161611,58,160931,Sternberg,9,9362,12,yes,1024
77,77,768,768,black,no,experiment,legacy,legacy,legacy,0,uniform,1,right,12,12,12,12,0,0,0,12,12,0,0,12,12,12,0,0,12,12,0,Wed Sep 23 2020 22:27:07 GMT+0200 (CEST),The main experiment item,yes,/Users/ethan/Documents/GitHub/OpenSesame/Sternberg/experiment_files,no,mono,no,18,no,white,no,no,768,legacy,legacy,6 1 2,osweb,1.3.8,3,y,right,,,right,right,right,628,,,89681,2734,628,2,legacy,1600892911945,3,1024,2,48000,-16,experiment,1,odd,2,167629,,,161614,58,165400,149480,58,162641,169648,166414,170278,58,169648,Sternberg,10,9990,13,yes,1024
79,79,767,767,black,no,experiment,legacy,legacy,legacy,0,uniform,1,right,13,13,13,13,0,0,0,13,13,0,0,13,13,13,0,0,13,13,0,Wed Sep 23 2020 22:27:07 GMT+0200 (CEST),The main experiment item,yes,/Users/ethan/Documents/GitHub/OpenSesame/Sternberg/experiment_files,no,mono,no,18,no,white,no,no,768,legacy,legacy,4 7 6 8 2 3,osweb,1.3.8,6,y,right,,,right,right,right,753,,,89681,2734,753,2,legacy,1600892911945,6,1024,2,48000,-16,experiment,1,odd,3,173546,,,170280,58,171315,149480,58,162641,175564,172331,176328,58,175564,Sternberg,11,10743,14,yes,1024
80,80,766,766,black,no,experiment,legacy,legacy,legacy,0,uniform,1,right,14,14,14,14,0,0,0,14,14,0,0,14,14,14,0,0,14,14,0,Wed Sep 23 2020 22:27:07 GMT+0200 (CEST),The main experiment item,yes,/Users/ethan/Documents/GitHub/OpenSesame/Sternberg/experiment_files,no,mono,no,18,no,white,no,no,768,legacy,legacy,4 6 5 8,osweb,1.3.8,1,y,right,,,right,right,right,750,,,89681,2734,750,2,legacy,1600892911945,4,1024,2,48000,-16,experiment,1,odd,4,179596,,,176331,58,177368,149480,58,162641,181615,178379,182378,58,181615,Sternberg,12,11493,15,yes,1024
81,81,762,762,black,no,experiment,legacy,legacy,legacy,0,uniform,1,left,15,15,15,15,0,0,0,15,15,0,0,15,15,15,0,0,15,15,0,Wed Sep 23 2020 22:27:07 GMT+0200 (CEST),The main experiment item,yes,/Users/ethan/Documents/GitHub/OpenSesame/Sternberg/experiment_files,no,mono,no,18,no,white,no,no,768,legacy,legacy,5 9 2 3,osweb,1.3.8,0,n,left,,,right,right,left,694,,,89681,2734,694,2,legacy,1600892911945,4,1024,2,48000,-16,experiment,1,odd,8,185645,,,182382,58,183422,149480,58,162641,187665,184429,188360,58,187665,Sternberg,13,12187,16,yes,1024
76,76,768,768,black,no,experiment,legacy,legacy,legacy,0,uniform,0,right,16,16,16,16,0,0,0,16,16,0,0,16,16,16,0,0,16,16,0,Wed Sep 23 2020 22:27:07 GMT+0200 (CEST),The main experiment item,yes,/Users/ethan/Documents/GitHub/OpenSesame/Sternberg/experiment_files,no,mono,no,18,no,white,no,no,768,legacy,legacy,3 5 9 6 2 4,osweb,1.3.8,1,y,left,,,right,right,left,868,,,89681,2734,868,2,legacy,1600892911945,6,1024,2,48000,-16,experiment,1,odd,3,191630,,,188365,58,189398,149480,58,162641,193649,190415,194527,58,193649,Sternberg,13,13055,17,yes,1024
78,78,765,765,black,no,experiment,legacy,legacy,legacy,0,uniform,1,left,17,17,17,17,0,0,0,17,17,0,0,17,17,17,0,0,17,17,0,Wed Sep 23 2020 22:27:07 GMT+0200 (CEST),The main experiment item,yes,/Users/ethan/Documents/GitHub/OpenSesame/Sternberg/experiment_files,no,mono,no,18,no,white,no,no,768,legacy,legacy,4 8 1 2,osweb,1.3.8,0,n,left,,,right,right,left,716,,,89681,2734,716,2,legacy,1600892911945,4,1024,2,48000,-16,experiment,1,odd,7,197795,,,188365,58,195566,194533,58,162641,199814,196581,200544,58,199814,Sternberg,14,13771,18,yes,1024
79,79,772,772,black,no,experiment,legacy,legacy,legacy,0,uniform,1,right,18,18,18,18,0,0,0,18,18,0,0,18,18,18,0,0,18,18,0,Wed Sep 23 2020 22:27:07 GMT+0200 (CEST),The main experiment item,yes,/Users/ethan/Documents/GitHub/OpenSesame/Sternberg/experiment_files,no,mono,no,18,no,white,no,no,768,legacy,legacy,7 8 4 6 9 5,osweb,1.3.8,4,y,right,,,right,right,right,888,,,89681,2734,888,2,legacy,1600892911945,6,1024,2,48000,-16,experiment,1,odd,6,203812,,,200548,58,201585,194533,58,162641,205831,202597,206728,58,205831,Sternberg,15,14659,19,yes,1024
80,80,761,761,black,no,experiment,legacy,legacy,legacy,0,uniform,1,left,19,19,19,19,0,0,0,19,19,0,0,19,19,19,0,0,19,19,0,Wed Sep 23 2020 22:27:07 GMT+0200 (CEST),The main experiment item,yes,/Users/ethan/Documents/GitHub/OpenSesame/Sternberg/experiment_files,no,mono,no,18,no,white,no,no,768,legacy,legacy,1 4 9 3,osweb,1.3.8,0,n,left,,,right,right,left,567,,,89681,2734,567,2,legacy,1600892911945,4,1024,2,48000,-16,experiment,1,odd,5,209995,,,206732,58,207765,194533,58,162641,212017,208781,212595,58,212017,Sternberg,16,15226,20,yes,1024
81,81,751,751,black,no,experiment,legacy,legacy,legacy,0,uniform,1,left,20,20,20,20,0,0,0,20,20,0,0,20,20,20,0,0,20,20,0,Wed Sep 23 2020 22:27:07 GMT+0200 (CEST),The main experiment item,yes,/Users/ethan/Documents/GitHub/OpenSesame/Sternberg/experiment_files,no,mono,no,18,no,white,no,no,768,legacy,legacy,1 7 8 3 9,osweb,1.3.8,0,n,left,,,right,right,left,537,,,89681,2734,537,2,legacy,1600892911945,5,1024,2,48000,-16,experiment,1,odd,2,215862,,,212601,58,213634,194533,58,162641,217881,214648,218428,58,217881,Sternberg,17,15763,21,yes,1024
82,82,735,735,black,no,experiment,legacy,legacy,legacy,0,uniform,1,right,21,21,21,21,0,0,0,21,21,0,0,21,21,21,0,0,21,21,0,Wed Sep 23 2020 22:27:07 GMT+0200 (CEST),The main experiment item,yes,/Users/ethan/Documents/GitHub/OpenSesame/Sternberg/experiment_files,no,mono,no,18,no,white,no,no,768,legacy,legacy,7 6,osweb,1.3.8,2,y,right,,,right,right,right,405,,,89681,2734,405,2,legacy,1600892911945,2,1024,2,48000,-16,experiment,1,odd,6,221695,,,218433,58,219465,194533,58,162641,223714,220481,224127,58,223714,Sternberg,18,16168,22,yes,1024
83,83,740,740,black,no,experiment,legacy,legacy,legacy,0,uniform,1,right,22,22,22,22,0,0,0,22,22,0,0,22,22,22,0,0,22,22,0,Wed Sep 23 2020 22:27:07 GMT+0200 (CEST),The main experiment item,yes,/Users/ethan/Documents/GitHub/OpenSesame/Sternberg/experiment_files,no,mono,no,18,no,white,no,no,768,legacy,legacy,2 4 6 9,osweb,1.3.8,3,y,right,,,right,right,right,859,,,89681,2734,859,2,legacy,1600892911945,4,1024,2,48000,-16,experiment,1,odd,6,227395,,,224131,58,225165,194533,58,162641,229414,226181,230277,58,229414,Sternberg,19,17027,23,yes,1024
83,83,743,743,black,no,experiment,legacy,legacy,legacy,0,uniform,1,left,23,23,23,23,0,0,0,23,23,0,0,23,23,23,0,0,23,23,0,Wed Sep 23 2020 22:27:07 GMT+0200 (CEST),The main experiment item,yes,/Users/ethan/Documents/GitHub/OpenSesame/Sternberg/experiment_files,no,mono,no,18,no,white,no,no,768,legacy,legacy,6 3 1 7 9 8,osweb,1.3.8,0,n,left,,,right,right,left,798,,,89681,2734,798,2,legacy,1600892911945,6,1024,2,48000,-16,experiment,1,odd,4,233545,,,230284,58,231317,194533,58,162641,235564,232331,236376,58,235564,Sternberg,20,17825,24,yes,1024
84,84,735,735,black,no,experiment,legacy,legacy,legacy,0,uniform,1,left,24,24,24,24,0,0,0,24,24,0,0,24,24,24,0,0,24,24,0,Wed Sep 23 2020 22:27:07 GMT+0200 (CEST),The main experiment item,yes,/Users/ethan/Documents/GitHub/OpenSesame/Sternberg/experiment_files,no,mono,no,18,no,white,no,no,768,legacy,legacy,1 7 5 2,osweb,1.3.8,0,n,left,,,right,right,left,561,,,89681,2734,561,2,legacy,1600892911945,4,1024,2,48000,-16,experiment,1,odd,3,239645,,,236380,58,237416,194533,58,162641,241664,238429,242227,58,241664,Sternberg,21,18386,25,yes,1024
85,85,729,729,black,no,experiment,legacy,legacy,legacy,0,uniform,1,left,25,25,25,25,0,0,0,25,25,0,0,25,25,25,0,0,25,25,0,Wed Sep 23 2020 22:27:07 GMT+0200 (CEST),The main experiment item,yes,/Users/ethan/Documents/GitHub/OpenSesame/Sternberg/experiment_files,no,mono,no,18,no,white,no,no,768,legacy,legacy,6 8 4,osweb,1.3.8,0,n,left,,,right,right,left,569,,,89681,2734,569,2,legacy,1600892911945,3,1024,2,48000,-16,experiment,1,odd,1,245494,,,242232,58,243265,194533,58,162641,247514,244281,248094,58,247514,Sternberg,22,18955,26,yes,1024
85,85,717,717,black,no,experiment,legacy,legacy,legacy,0,uniform,1,right,26,26,26,26,0,0,0,26,26,0,0,26,26,26,0,0,26,26,0,Wed Sep 23 2020 22:27:07 GMT+0200 (CEST),The main experiment item,yes,/Users/ethan/Documents/GitHub/OpenSesame/Sternberg/experiment_files,no,mono,no,18,no,white,no,no,768,legacy,legacy,7 2 3,osweb,1.3.8,3,y,right,,,right,right,right,408,,,89681,2734,408,2,legacy,1600892911945,3,1024,2,48000,-16,experiment,1,odd,3,251361,,,248098,58,249137,194533,58,162641,253381,250147,253793,58,253381,Sternberg,23,19363,27,yes,1024
86,86,720,720,black,no,experiment,legacy,legacy,legacy,0,uniform,1,right,27,27,27,27,0,0,0,27,27,0,0,27,27,27,0,0,27,27,0,Wed Sep 23 2020 22:27:07 GMT+0200 (CEST),The main experiment item,yes,/Users/ethan/Documents/GitHub/OpenSesame/Sternberg/experiment_files,no,mono,no,18,no,white,no,no,768,legacy,legacy,8 9 5 7 1 6,osweb,1.3.8,4,y,right,,,right,right,right,787,,,89681,2734,787,2,legacy,1600892911945,6,1024,2,48000,-16,experiment,1,odd,7,257061,,,253798,58,254832,194533,58,162641,259080,255846,259877,58,259080,Sternberg,24,20150,28,yes,1024
86,86,721,721,black,no,experiment,legacy,legacy,legacy,0,uniform,1,left,28,28,28,28,0,0,0,28,28,0,0,28,28,28,0,0,28,28,0,Wed Sep 23 2020 22:27:07 GMT+0200 (CEST),The main experiment item,yes,/Users/ethan/Documents/GitHub/OpenSesame/Sternberg/experiment_files,no,mono,no,18,no,white,no,no,768,legacy,legacy,7 6 4 8 1 2,osweb,1.3.8,0,n,left,,,right,right,left,762,,,89681,2734,762,2,legacy,1600892911945,6,1024,2,48000,-16,experiment,1,odd,9,263144,,,259881,58,260915,194533,58,162641,265163,261934,265927,58,265163,Sternberg,25,20912,29,yes,1024
87,87,722,722,black,no,experiment,legacy,legacy,legacy,0,uniform,1,left,29,29,29,29,0,0,0,29,29,0,0,29,29,29,0,0,29,29,0,Wed Sep 23 2020 22:27:07 GMT+0200 (CEST),The main experiment item,yes,/Users/ethan/Documents/GitHub/OpenSesame/Sternberg/experiment_files,no,mono,no,18,no,white,no,no,768,legacy,legacy,4 1,osweb,1.3.8,0,n,left,,,right,right,left,761,,,89681,2734,761,2,legacy,1600892911945,2,1024,2,48000,-16,experiment,1,odd,6,269194,,,265932,58,266966,194533,58,162641,271213,267979,271977,58,271213,Sternberg,26,21673,30,yes,1024
84,84,730,730,black,no,experiment,legacy,legacy,legacy,0,uniform,0,right,30,30,30,30,0,0,0,30,30,0,0,30,30,30,0,0,30,30,0,Wed Sep 23 2020 22:27:07 GMT+0200 (CEST),The main experiment item,yes,/Users/ethan/Documents/GitHub/OpenSesame/Sternberg/experiment_files,no,mono,no,18,no,white,no,no,768,legacy,legacy,6 9 7 4 5 1,osweb,1.3.8,2,y,left,,,right,right,left,947,,,89681,2734,947,2,legacy,1600892911945,6,1024,2,48000,-16,experiment,1,odd,9,275244,,,271980,58,273015,194533,58,162641,277265,274029,278227,58,277263,Sternberg,26,22620,31,yes,1024
84,84,751,751,black,no,experiment,legacy,legacy,legacy,0,uniform,1,right,31,31,31,31,0,0,0,31,31,0,0,31,31,31,0,0,31,31,0,Wed Sep 23 2020 22:27:07 GMT+0200 (CEST),The main experiment item,yes,/Users/ethan/Documents/GitHub/OpenSesame/Sternberg/experiment_files,no,mono,no,18,no,white,no,no,768,legacy,legacy,9 3 1 2 5,osweb,1.3.8,4,y,right,,,right,right,right,1401,,,89681,2734,1401,2,legacy,1600892911945,5,1024,2,48000,-16,experiment,1,odd,2,281494,,,271980,58,279265,278232,58,162641,283513,280279,284927,58,283513,Sternberg,27,24021,32,yes,1024
85,85,742,742,black,no,experiment,legacy,legacy,legacy,0,uniform,1,right,32,32,32,32,0,0,0,32,32,0,0,32,32,32,0,0,32,32,0,Wed Sep 23 2020 22:27:07 GMT+0200 (CEST),The main experiment item,yes,/Users/ethan/Documents/GitHub/OpenSesame/Sternberg/experiment_files,no,mono,no,18,no,white,no,no,768,legacy,legacy,6 2,osweb,1.3.8,1,y,right,,,right,right,right,470,,,89681,2734,470,2,legacy,1600892911945,2,1024,2,48000,-16,experiment,1,odd,6,288194,,,284930,58,285964,278232,58,162641,290213,286979,290693,58,290213,Sternberg,28,24491,33,yes,1024
85,85,736,736,black,no,experiment,legacy,legacy,legacy,0,uniform,1,left,33,33,33,33,0,0,0,33,33,0,0,33,33,33,0,0,33,33,0,Wed Sep 23 2020 22:27:07 GMT+0200 (CEST),The main experiment item,yes,/Users/ethan/Documents/GitHub/OpenSesame/Sternberg/experiment_files,no,mono,no,18,no,white,no,no,768,legacy,legacy,9,osweb,1.3.8,0,n,left,,,right,right,left,533,,,89681,2734,533,2,legacy,1600892911945,1,1024,2,48000,-16,experiment,1,odd,6,293961,,,290698,58,291730,278232,58,162641,295981,292750,296527,58,295981,Sternberg,29,25024,34,yes,1024
86,86,736,736,black,no,experiment,legacy,legacy,legacy,0,uniform,1,left,34,34,34,34,0,0,0,34,34,0,0,34,34,34,0,0,34,34,0,Wed Sep 23 2020 22:27:07 GMT+0200 (CEST),The main experiment item,yes,/Users/ethan/Documents/GitHub/OpenSesame/Sternberg/experiment_files,no,mono,no,18,no,white,no,no,768,legacy,legacy,9 5 3 2 8 6,osweb,1.3.8,0,n,left,,,right,right,left,743,,,89681,2734,743,2,legacy,1600892911945,6,1024,2,48000,-16,experiment,1,odd,7,299794,,,296531,58,297564,278232,58,162641,301812,298581,302559,58,301812,Sternberg,30,25767,35,yes,1024
86,86,736,736,black,no,experiment,legacy,legacy,legacy,0,uniform,1,right,35,35,35,35,0,0,0,35,35,0,0,35,35,35,0,0,35,35,0,Wed Sep 23 2020 22:27:07 GMT+0200 (CEST),The main experiment item,yes,/Users/ethan/Documents/GitHub/OpenSesame/Sternberg/experiment_files,no,mono,no,18,no,white,no,no,768,legacy,legacy,3 5 7 1,osweb,1.3.8,3,y,right,,,right,right,right,728,,,89681,2734,728,2,legacy,1600892911945,4,1024,2,48000,-16,experiment,1,odd,7,305827,,,302562,58,303598,278232,58,162641,307846,304612,308576,58,307846,Sternberg,31,26495,36,yes,1024
84,84,734,734,black,no,experiment,legacy,legacy,legacy,0,uniform,0,right,36,36,36,36,0,0,0,36,36,0,0,36,36,36,0,0,36,36,0,Wed Sep 23 2020 22:27:07 GMT+0200 (CEST),The main experiment item,yes,/Users/ethan/Documents/GitHub/OpenSesame/Sternberg/experiment_files,no,mono,no,18,no,white,no,no,768,legacy,legacy,7 1 8 5 6 2,osweb,1.3.8,2,y,left,,,right,right,left,667,,,89681,2734,667,2,legacy,1600892911945,6,1024,2,48000,-16,experiment,1,odd,1,311843,,,308581,58,309613,278232,58,162641,313863,310629,314543,58,313863,Sternberg,31,27162,37,yes,1024
84,84,733,733,black,no,experiment,legacy,legacy,legacy,0,uniform,1,right,37,37,37,37,0,0,0,37,37,0,0,37,37,37,0,0,37,37,0,Wed Sep 23 2020 22:27:07 GMT+0200 (CEST),The main experiment item,yes,/Users/ethan/Documents/GitHub/OpenSesame/Sternberg/experiment_files,no,mono,no,18,no,white,no,no,768,legacy,legacy,2 6 1 7 4,osweb,1.3.8,2,y,right,,,right,right,right,679,,,89681,2734,679,2,legacy,1600892911945,5,1024,2,48000,-16,experiment,1,odd,6,317810,,,308581,58,315581,314546,58,162641,319829,316596,320510,58,319829,Sternberg,32,27841,38,yes,1024
85,85,739,739,black,no,experiment,legacy,legacy,legacy,0,uniform,1,left,38,38,38,38,0,0,0,38,38,0,0,38,38,38,0,0,38,38,0,Wed Sep 23 2020 22:27:07 GMT+0200 (CEST),The main experiment item,yes,/Users/ethan/Documents/GitHub/OpenSesame/Sternberg/experiment_files,no,mono,no,18,no,white,no,no,768,legacy,legacy,2 5 1 4,osweb,1.3.8,0,n,left,,,right,right,left,970,,,89681,2734,970,2,legacy,1600892911945,4,1024,2,48000,-16,experiment,1,odd,6,323777,,,320517,58,321547,314546,58,162641,325796,322562,326776,58,325796,Sternberg,33,28811,39,yes,1024
85,85,759,759,black,no,experiment,legacy,legacy,legacy,0,uniform,1,right,39,39,39,39,0,0,0,39,39,0,0,39,39,39,0,0,39,39,0,Wed Sep 23 2020 22:27:07 GMT+0200 (CEST),The main experiment item,yes,/Users/ethan/Documents/GitHub/OpenSesame/Sternberg/experiment_files,no,mono,no,18,no,white,no,no,768,legacy,legacy,1 4 9 3 2 5,osweb,1.3.8,3,y,right,,,right,right,right,1547,,,89681,2734,1547,2,legacy,1600892911945,6,1024,2,48000,-16,experiment,1,odd,9,330044,,,326780,58,327812,314546,58,162641,332062,328834,333626,58,332062,Sternberg,34,30358,40,yes,1024
85,85,755,755,black,no,experiment,legacy,legacy,legacy,0,uniform,1,left,40,40,40,40,0,0,0,40,40,0,0,40,40,40,0,0,40,40,0,Wed Sep 23 2020 22:27:07 GMT+0200 (CEST),The main experiment item,yes,/Users/ethan/Documents/GitHub/OpenSesame/Sternberg/experiment_files,no,mono,no,18,no,white,no,no,768,legacy,legacy,1 8 7,osweb,1.3.8,0,n,left,,,right,right,left,609,,,89681,2734,609,2,legacy,1600892911945,3,1024,2,48000,-16,experiment,1,odd,4,336893,,,333631,58,334664,314546,58,162641,338912,335678,339525,58,338912,Sternberg,35,30967,41,yes,1024
86,86,757,757,black,no,experiment,legacy,legacy,legacy,0,uniform,1,left,41,41,41,41,0,0,0,41,41,0,0,41,41,41,0,0,41,41,0,Wed Sep 23 2020 22:27:07 GMT+0200 (CEST),The main experiment item,yes,/Users/ethan/Documents/GitHub/OpenSesame/Sternberg/experiment_files,no,mono,no,18,no,white,no,no,768,legacy,legacy,6 9 5,osweb,1.3.8,0,n,left,,,right,right,left,838,,,89681,2734,838,2,legacy,1600892911945,3,1024,2,48000,-16,experiment,1,odd,8,342793,,,339529,58,340559,314546,58,162641,344811,341578,345659,58,344811,Sternberg,36,31805,42,yes,1024
84,84,762,762,black,no,experiment,legacy,legacy,legacy,0,uniform,0,left,42,42,42,42,0,0,0,42,42,0,0,42,42,42,0,0,42,42,0,Wed Sep 23 2020 22:27:07 GMT+0200 (CEST),The main experiment item,yes,/Users/ethan/Documents/GitHub/OpenSesame/Sternberg/experiment_files,no,mono,no,18,no,white,no,no,768,legacy,legacy,4 2 7 6 1 3,osweb,1.3.8,0,n,right,,,right,right,right,969,,,89681,2734,969,2,legacy,1600892911945,6,1024,2,48000,-16,experiment,1,odd,8,348926,,,345663,58,346697,314546,58,162641,350948,347711,351926,58,350946,Sternberg,36,32774,43,yes,1024
84,84,760,760,black,no,experiment,legacy,legacy,legacy,0,uniform,1,left,43,43,43,43,0,0,0,43,43,0,0,43,43,43,0,0,43,43,0,Wed Sep 23 2020 22:27:07 GMT+0200 (CEST),The main experiment item,yes,/Users/ethan/Documents/GitHub/OpenSesame/Sternberg/experiment_files,no,mono,no,18,no,white,no,no,768,legacy,legacy,1 3 2 6 9,osweb,1.3.8,0,n,left,,,right,right,left,659,,,89681,2734,659,2,legacy,1600892911945,5,1024,2,48000,-16,experiment,1,odd,5,355193,,,345663,58,352964,351931,58,162641,357212,353979,357875,58,357212,Sternberg,37,33433,44,yes,1024
84,84,757,757,black,no,experiment,legacy,legacy,legacy,0,uniform,1,left,44,44,44,44,0,0,0,44,44,0,0,44,44,44,0,0,44,44,0,Wed Sep 23 2020 22:27:07 GMT+0200 (CEST),The main experiment item,yes,/Users/ethan/Documents/GitHub/OpenSesame/Sternberg/experiment_files,no,mono,no,18,no,white,no,no,768,legacy,legacy,8 2 1 4 5 9,osweb,1.3.8,0,n,left,,,right,right,left,643,,,89681,2734,643,2,legacy,1600892911945,6,1024,2,48000,-16,experiment,1,odd,7,361143,,,357879,58,358913,351931,58,162641,363161,359929,363809,58,363161,Sternberg,38,34076,45,yes,1024
85,85,757,757,black,no,experiment,legacy,legacy,legacy,0,uniform,1,left,45,45,45,45,0,0,0,45,45,0,0,45,45,45,0,0,45,45,0,Wed Sep 23 2020 22:27:07 GMT+0200 (CEST),The main experiment item,yes,/Users/ethan/Documents/GitHub/OpenSesame/Sternberg/experiment_files,no,mono,no,18,no,white,no,no,768,legacy,legacy,7 1,osweb,1.3.8,0,n,left,,,right,right,left,750,,,89681,2734,750,2,legacy,1600892911945,2,1024,2,48000,-16,experiment,1,odd,8,367076,,,363812,58,364847,351931,58,162641,369096,365861,369859,58,369096,Sternberg,39,34826,46,yes,1024
85,85,764,764,black,no,experiment,legacy,legacy,legacy,0,uniform,1,right,46,46,46,46,0,0,0,46,46,0,0,46,46,46,0,0,46,46,0,Wed Sep 23 2020 22:27:07 GMT+0200 (CEST),The main experiment item,yes,/Users/ethan/Documents/GitHub/OpenSesame/Sternberg/experiment_files,no,mono,no,18,no,white,no,no,768,legacy,legacy,5 7 3 6 2,osweb,1.3.8,5,y,right,,,right,right,right,1065,,,89681,2734,1065,2,legacy,1600892911945,5,1024,2,48000,-16,experiment,1,odd,2,373126,,,369863,58,370896,351931,58,162641,375145,371911,376226,58,375145,Sternberg,40,35891,47,yes,1024
85,85,775,775,black,no,experiment,legacy,legacy,legacy,0,uniform,1,left,47,47,47,47,0,0,0,47,47,0,0,47,47,47,0,0,47,47,0,Wed Sep 23 2020 22:27:07 GMT+0200 (CEST),The main experiment item,yes,/Users/ethan/Documents/GitHub/OpenSesame/Sternberg/experiment_files,no,mono,no,18,no,white,no,no,768,legacy,legacy,2 8 9,osweb,1.3.8,0,n,left,,,right,right,left,1329,,,89681,2734,1329,2,legacy,1600892911945,3,1024,2,48000,-16,experiment,1,odd,6,379493,,,376228,58,377263,351931,58,162641,381512,378279,382841,58,381512,Sternberg,41,37220,48,yes,1024
86,86,777,777,black,no,experiment,legacy,legacy,legacy,0,uniform,1,left,48,48,48,48,0,0,0,48,48,0,0,48,48,48,0,0,48,48,0,Wed Sep 23 2020 22:27:07 GMT+0200 (CEST),The main experiment item,yes,/Users/ethan/Documents/GitHub/OpenSesame/Sternberg/experiment_files,no,mono,no,18,no,white,no,no,768,legacy,legacy,8 5 4 2 9 6,osweb,1.3.8,0,n,left,,,right,right,left,859,,,89681,2734,859,2,legacy,1600892911945,6,1024,2,48000,-16,experiment,1,odd,3,386110,,,382846,58,383879,351931,58,162641,388129,384899,388992,58,388128,Sternberg,42,38079,49,yes,1024
86,86,785,785,black,no,experiment,legacy,legacy,legacy,0,uniform,1,left,49,49,49,49,0,0,0,49,49,0,0,49,49,49,0,0,49,49,0,Wed Sep 23 2020 22:27:07 GMT+0200 (CEST),The main experiment item,yes,/Users/ethan/Documents/GitHub/OpenSesame/Sternberg/experiment_files,no,mono,no,18,no,white,no,no,768,legacy,legacy,8 4 3 5,osweb,1.3.8,0,n,left,,,right,right,left,1169,,,89681,2734,1169,2,legacy,1600892911945,4,1024,2,48000,-16,experiment,1,odd,6,392259,,,388996,58,390029,351931,58,162641,394279,391044,395459,58,394279,Sternberg,43,39248,50,yes,1024
86,86,782,782,black,no,experiment,legacy,legacy,legacy,0,uniform,1,left,50,50,50,50,0,0,0,50,50,0,0,50,50,50,0,0,50,50,0,Wed Sep 23 2020 22:27:07 GMT+0200 (CEST),The main experiment item,yes,/Users/ethan/Documents/GitHub/OpenSesame/Sternberg/experiment_files,no,mono,no,18,no,white,no,no,768,legacy,legacy,1 7 5 2 9,osweb,1.3.8,0,n,left,,,right,right,left,626,,,89681,2734,626,2,legacy,1600892911945,5,1024,2,48000,-16,experiment,1,odd,3,398726,,,395463,58,396495,351931,58,162641,400745,397511,401375,58,400745,Sternberg,44,39874,51,yes,1024
87,87,785,785,black,no,experiment,legacy,legacy,legacy,0,uniform,1,right,51,51,51,51,0,0,0,51,51,0,0,51,51,51,0,0,51,51,0,Wed Sep 23 2020 22:27:07 GMT+0200 (CEST),The main experiment item,yes,/Users/ethan/Documents/GitHub/OpenSesame/Sternberg/experiment_files,no,mono,no,18,no,white,no,no,768,legacy,legacy,2 3,osweb,1.3.8,1,y,right,,,right,right,right,954,,,89681,2734,954,2,legacy,1600892911945,2,1024,2,48000,-16,experiment,1,odd,2,404643,,,401379,58,402412,351931,58,162641,406661,403428,407625,58,406661,Sternberg,45,40828,52,yes,1024
87,87,783,783,black,no,experiment,legacy,legacy,legacy,0,uniform,1,left,52,52,52,52,0,0,0,52,52,0,0,52,52,52,0,0,52,52,0,Wed Sep 23 2020 22:27:07 GMT+0200 (CEST),The main experiment item,yes,/Users/ethan/Documents/GitHub/OpenSesame/Sternberg/experiment_files,no,mono,no,18,no,white,no,no,768,legacy,legacy,4 2 6 9,osweb,1.3.8,0,n,left,,,right,right,left,662,,,89681,2734,662,2,legacy,1600892911945,4,1024,2,48000,-16,experiment,1,odd,7,410892,,,407629,58,408662,351931,58,162641,412912,409679,413574,58,412912,Sternberg,46,41490,53,yes,1024
87,87,780,780,black,no,experiment,legacy,legacy,legacy,0,uniform,1,left,53,53,53,53,0,0,0,53,53,0,0,53,53,53,0,0,53,53,0,Wed Sep 23 2020 22:27:07 GMT+0200 (CEST),The main experiment item,yes,/Users/ethan/Documents/GitHub/OpenSesame/Sternberg/experiment_files,no,mono,no,18,no,white,no,no,768,legacy,legacy,6 8,osweb,1.3.8,0,n,left,,,right,right,left,618,,,89681,2734,618,2,legacy,1600892911945,2,1024,2,48000,-16,experiment,1,odd,9,416842,,,413579,58,414612,351931,58,162641,418861,415625,419491,58,418861,Sternberg,47,42108,54,yes,1024
87,87,787,787,black,no,experiment,legacy,legacy,legacy,0,uniform,1,left,54,54,54,54,0,0,0,54,54,0,0,54,54,54,0,0,54,54,0,Wed Sep 23 2020 22:27:07 GMT+0200 (CEST),The main experiment item,yes,/Users/ethan/Documents/GitHub/OpenSesame/Sternberg/experiment_files,no,mono,no,18,no,white,no,no,768,legacy,legacy,2 8 7 9 5 3,osweb,1.3.8,0,n,left,,,right,right,left,1203,,,89681,2734,1203,2,legacy,1600892911945,6,1024,2,48000,-16,experiment,1,odd,6,422759,,,419497,58,420530,351931,58,162641,424778,421544,425991,58,424778,Sternberg,48,43311,55,yes,1024
88,88,786,786,black,no,experiment,legacy,legacy,legacy,0,uniform,1,left,55,55,55,55,0,0,0,55,55,0,0,55,55,55,0,0,55,55,0,Wed Sep 23 2020 22:27:07 GMT+0200 (CEST),The main experiment item,yes,/Users/ethan/Documents/GitHub/OpenSesame/Sternberg/experiment_files,no,mono,no,18,no,white,no,no,768,legacy,legacy,7 1 5 6 3,osweb,1.3.8,0,n,left,right,,right,right,left,704,16059,,89681,2734,704,2,legacy,1600892911945,5,1024,2,48000,-16,experiment,1,odd,8,445325,427015,,425994,58,443094,351931,58,162641,447344,444111,448058,58,447344,Sternberg,49,44015,56,yes,1024
88,88,784,784,black,no,experiment,legacy,legacy,legacy,0,uniform,1,left,56,56,56,56,0,0,0,56,56,0,0,56,56,56,0,0,56,56,0,Wed Sep 23 2020 22:27:07 GMT+0200 (CEST),The main experiment item,yes,/Users/ethan/Documents/GitHub/OpenSesame/Sternberg/experiment_files,no,mono,no,18,no,white,no,no,768,legacy,legacy,3 9 8 1 6 4,osweb,1.3.8,0,n,left,right,,right,right,left,692,16059,,89681,2734,692,2,legacy,1600892911945,6,1024,2,48000,-16,experiment,1,odd,7,451325,427015,,448063,58,449095,351931,58,162641,453344,450111,454041,58,453344,Sternberg,50,44707,57,yes,1024
88,88,782,782,black,no,experiment,legacy,legacy,legacy,0,uniform,1,left,57,57,57,57,0,0,0,57,57,0,0,57,57,57,0,0,57,57,0,Wed Sep 23 2020 22:27:07 GMT+0200 (CEST),The main experiment item,yes,/Users/ethan/Documents/GitHub/OpenSesame/Sternberg/experiment_files,no,mono,no,18,no,white,no,no,768,legacy,legacy,9 8 2 7 4,osweb,1.3.8,0,n,left,right,,right,right,left,650,16059,,89681,2734,650,2,legacy,1600892911945,5,1024,2,48000,-16,experiment,1,odd,5,457309,427015,,454046,58,455078,351931,58,162641,459329,456097,459990,58,459329,Sternberg,51,45357,58,yes,1024
86,86,786,786,black,no,experiment,legacy,legacy,legacy,0,uniform,0,right,58,58,58,58,0,0,0,58,58,0,0,58,58,58,0,0,58,58,0,Wed Sep 23 2020 22:27:07 GMT+0200 (CEST),The main experiment item,yes,/Users/ethan/Documents/GitHub/OpenSesame/Sternberg/experiment_files,no,mono,no,18,no,white,no,no,768,legacy,legacy,6 7 9 3 1 2,osweb,1.3.8,1,y,left,right,,right,right,left,1034,16059,,89681,2734,1034,2,legacy,1600892911945,6,1024,2,48000,-16,experiment,1,odd,6,463259,427015,,459996,58,461030,351931,58,162641,465278,462044,466324,58,465277,Sternberg,51,46391,59,yes,1024
87,87,797,797,black,no,experiment,legacy,legacy,legacy,0,uniform,1,right,59,59,59,59,0,0,0,59,59,0,0,59,59,59,0,0,59,59,0,Wed Sep 23 2020 22:27:07 GMT+0200 (CEST),The main experiment item,yes,/Users/ethan/Documents/GitHub/OpenSesame/Sternberg/experiment_files,no,mono,no,18,no,white,no,no,768,legacy,legacy,2 8 5 1,osweb,1.3.8,4,y,right,right,,right,right,right,1438,16059,,89681,2734,1438,2,legacy,1600892911945,4,1024,2,48000,-16,experiment,1,odd,1,469592,427015,,459996,58,467362,466329,58,162641,471610,468377,473058,58,471610,Sternberg,52,47829,60,yes,1024
87,87,800,800,black,no,experiment,legacy,legacy,legacy,0,uniform,1,right,60,60,60,60,0,0,0,60,60,0,0,60,60,60,0,0,60,60,0,Wed Sep 23 2020 22:27:07 GMT+0200 (CEST),The main experiment item,yes,/Users/ethan/Documents/GitHub/OpenSesame/Sternberg/experiment_files,no,mono,no,18,no,white,no,no,768,legacy,legacy,5 7 8 2 3 8,osweb,1.3.8,5,y,right,right,,right,right,right,969,16059,,89681,2734,969,2,legacy,1600892911945,6,1024,2,48000,-16,experiment,1,odd,3,476325,427015,,473063,58,474093,466329,58,162641,478342,475115,479324,58,478341,Sternberg,53,48798,61,yes,1024
87,87,804,804,black,no,experiment,legacy,legacy,legacy,0,uniform,1,left,61,61,61,61,0,0,0,61,61,0,0,61,61,61,0,0,61,61,0,Wed Sep 23 2020 22:27:07 GMT+0200 (CEST),The main experiment item,yes,/Users/ethan/Documents/GitHub/OpenSesame/Sternberg/experiment_files,no,mono,no,18,no,white,no,no,768,legacy,legacy,1 6 4 3 9 7,osweb,1.3.8,0,n,left,right,,right,right,left,1037,16059,,89681,2734,1037,2,legacy,1600892911945,6,1024,2,48000,-16,experiment,1,odd,8,482592,427015,,479328,58,480363,466329,58,162641,484611,481377,485656,58,484611,Sternberg,54,49835,62,yes,1024
87,87,801,801,black,no,experiment,legacy,legacy,legacy,0,uniform,1,left,62,62,62,62,0,0,0,62,62,0,0,62,62,62,0,0,62,62,0,Wed Sep 23 2020 22:27:07 GMT+0200 (CEST),The main experiment item,yes,/Users/ethan/Documents/GitHub/OpenSesame/Sternberg/experiment_files,no,mono,no,18,no,white,no,no,768,legacy,legacy,8 4 3 9,osweb,1.3.8,0,n,left,right,,right,right,left,644,16059,,89681,2734,644,2,legacy,1600892911945,4,1024,2,48000,-16,experiment,1,odd,5,488925,427015,,485661,58,486695,466329,58,162641,490943,487710,491591,58,490943,Sternberg,55,50479,63,yes,1024
88,88,800,800,black,no,experiment,legacy,legacy,legacy,0,uniform,1,right,63,63,63,63,0,0,0,63,63,0,0,63,63,63,0,0,63,63,0,Wed Sep 23 2020 22:27:07 GMT+0200 (CEST),The main experiment item,yes,/Users/ethan/Documents/GitHub/OpenSesame/Sternberg/experiment_files,no,mono,no,18,no,white,no,no,768,legacy,legacy,8 9 6 1,osweb,1.3.8,2,y,right,right,,right,right,right,711,16059,,89681,2734,711,2,legacy,1600892911945,4,1024,2,48000,-16,experiment,1,odd,9,494858,427015,,491594,58,492630,466329,58,162641,496877,493644,497590,58,496877,Sternberg,56,51190,64,yes,1024
88,88,802,802,black,no,experiment,legacy,legacy,legacy,0,uniform,1,right,64,64,64,64,0,0,0,64,64,0,0,64,64,64,0,0,64,64,0,Wed Sep 23 2020 22:27:07 GMT+0200 (CEST),The main experiment item,yes,/Users/ethan/Documents/GitHub/OpenSesame/Sternberg/experiment_files,no,mono,no,18,no,white,no,no,768,legacy,legacy,7 4 2 6 3 5,osweb,1.3.8,6,y,right,right,,right,right,right,920,16059,,89681,2734,920,2,legacy,1600892911945,6,1024,2,48000,-16,experiment,1,odd,5,500858,427015,,497595,58,498629,466329,58,162641,502877,499644,503807,58,502877,Sternberg,57,52110,65,yes,1024
88,88,806,806,black,no,experiment,legacy,legacy,legacy,0,uniform,1,right,65,65,65,65,0,0,0,65,65,0,0,65,65,65,0,0,65,65,0,Wed Sep 23 2020 22:27:07 GMT+0200 (CEST),The main experiment item,yes,/Users/ethan/Documents/GitHub/OpenSesame/Sternberg/experiment_files,no,mono,no,18,no,white,no,no,768,legacy,legacy,9 6 2 4 1,osweb,1.3.8,4,y,right,right,,right,right,right,1118,16059,,89681,2734,1118,2,legacy,1600892911945,5,1024,2,48000,-16,experiment,1,odd,4,507074,427015,,503812,58,504844,466329,58,162641,509094,505860,510223,58,509093,Sternberg,58,53228,66,yes,1024
88,88,805,805,black,no,experiment,legacy,legacy,legacy,0,uniform,1,left,66,66,66,66,0,0,0,66,66,0,0,66,66,66,0,0,66,66,0,Wed Sep 23 2020 22:27:07 GMT+0200 (CEST),The main experiment item,yes,/Users/ethan/Documents/GitHub/OpenSesame/Sternberg/experiment_files,no,mono,no,18,no,white,no,no,768,legacy,legacy,1 4 3 6 5,osweb,1.3.8,0,n,left,right,,right,right,left,696,16059,,89681,2734,696,2,legacy,1600892911945,5,1024,2,48000,-16,experiment,1,odd,8,513491,427015,,510227,58,511263,466329,58,162641,515510,512277,516207,58,515510,Sternberg,59,53924,67,yes,1024
88,88,803,803,black,no,experiment,legacy,legacy,legacy,0,uniform,1,left,67,67,67,67,0,0,0,67,67,0,0,67,67,67,0,0,67,67,0,Wed Sep 23 2020 22:27:07 GMT+0200 (CEST),The main experiment item,yes,/Users/ethan/Documents/GitHub/OpenSesame/Sternberg/experiment_files,no,mono,no,18,no,white,no,no,768,legacy,legacy,3 4 2,osweb,1.3.8,0,n,left,right,,right,right,left,698,16059,,89681,2734,698,2,legacy,1600892911945,3,1024,2,48000,-16,experiment,1,odd,5,519474,427015,,516212,58,517245,466329,58,162641,521493,518260,522207,58,521493,Sternberg,60,54622,68,yes,1024
88,88,800,800,black,no,experiment,legacy,legacy,legacy,0,uniform,1,right,68,68,68,68,0,0,0,68,68,0,0,68,68,68,0,0,68,68,0,Wed Sep 23 2020 22:27:07 GMT+0200 (CEST),The main experiment item,yes,/Users/ethan/Documents/GitHub/OpenSesame/Sternberg/experiment_files,no,mono,no,18,no,white,no,no,768,legacy,legacy,3 4,osweb,1.3.8,1,y,right,right,,right,right,right,593,16059,,89681,2734,593,2,legacy,1600892911945,2,1024,2,48000,-16,experiment,1,odd,3,525475,427015,,522211,58,523246,466329,58,162641,527494,524262,528089,58,527494,Sternberg,61,55215,69,yes,1024
89,89,803,803,black,no,experiment,legacy,legacy,legacy,0,uniform,1,left,69,69,69,69,0,0,0,69,69,0,0,69,69,69,0,0,69,69,0,Wed Sep 23 2020 22:27:07 GMT+0200 (CEST),The main experiment item,yes,/Users/ethan/Documents/GitHub/OpenSesame/Sternberg/experiment_files,no,mono,no,18,no,white,no,no,768,legacy,legacy,2 8 6 3 1,osweb,1.3.8,0,n,left,right,,right,right,left,976,16059,,89681,2734,976,2,legacy,1600892911945,5,1024,2,48000,-16,experiment,1,odd,7,531357,427015,,528095,58,529129,466329,58,162641,533378,530143,534356,58,533378,Sternberg,62,56191,70,yes,1024
89,89,803,803,black,no,experiment,legacy,legacy,legacy,0,uniform,1,left,70,70,70,70,0,0,0,70,70,0,0,70,70,70,0,0,70,70,0,Wed Sep 23 2020 22:27:07 GMT+0200 (CEST),The main experiment item,yes,/Users/ethan/Documents/GitHub/OpenSesame/Sternberg/experiment_files,no,mono,no,18,no,white,no,no,768,legacy,legacy,8 5 7 3 6,osweb,1.3.8,0,n,left,right,,right,right,left,852,16059,,89681,2734,852,2,legacy,1600892911945,5,1024,2,48000,-16,experiment,1,odd,9,537624,427015,,534360,58,535395,466329,58,162641,539643,536410,540507,58,539643,Sternberg,63,57043,71,yes,1024
89,89,805,805,black,no,experiment,legacy,legacy,legacy,0,uniform,1,right,71,71,71,71,0,0,0,71,71,0,0,71,71,71,0,0,71,71,0,Wed Sep 23 2020 22:27:07 GMT+0200 (CEST),The main experiment item,yes,/Users/ethan/Documents/GitHub/OpenSesame/Sternberg/experiment_files,no,mono,no,18,no,white,no,no,768,legacy,legacy,4 1 5,osweb,1.3.8,2,y,right,right,,right,right,right,938,16059,,89681,2734,938,2,legacy,1600892911945,3,1024,2,48000,-16,experiment,1,odd,1,543774,427015,,540510,58,541544,466329,58,162641,545793,542558,546739,58,545793,Sternberg,64,57981,72,yes,1024
89,89,808,808,black,no,experiment,legacy,legacy,legacy,0,uniform,1,right,72,72,72,72,0,0,0,72,72,0,0,72,72,72,0,0,72,72,0,Wed Sep 23 2020 22:27:07 GMT+0200 (CEST),The main experiment item,yes,/Users/ethan/Documents/GitHub/OpenSesame/Sternberg/experiment_files,no,mono,no,18,no,white,no,no,768,legacy,legacy,9 5 8 1,osweb,1.3.8,2,y,right,right,,right,right,right,1018,16059,,89681,2734,1018,2,legacy,1600892911945,4,1024,2,48000,-16,experiment,1,odd,5,550007,427015,,546744,58,547776,466329,58,162641,552027,548793,553057,58,552027,Sternberg,65,58999,73,yes,1024
88,88,809,809,black,no,experiment,legacy,legacy,legacy,0,uniform,0,right,73,73,73,73,0,0,0,73,73,0,0,73,73,73,0,0,73,73,0,Wed Sep 23 2020 22:27:07 GMT+0200 (CEST),The main experiment item,yes,/Users/ethan/Documents/GitHub/OpenSesame/Sternberg/experiment_files,no,mono,no,18,no,white,no,no,768,legacy,legacy,5 2 9 6 1 7,osweb,1.3.8,3,y,left,right,,right,right,left,875,16059,,89681,2734,875,2,legacy,1600892911945,6,1024,2,48000,-16,experiment,1,odd,9,556325,427015,,553062,58,554094,466329,58,162641,558342,555112,559223,58,558342,Sternberg,65,59874,74,yes,1024
88,88,805,805,black,no,experiment,legacy,legacy,legacy,0,uniform,1,right,74,74,74,74,0,0,0,74,74,0,0,74,74,74,0,0,74,74,0,Wed Sep 23 2020 22:27:07 GMT+0200 (CEST),The main experiment item,yes,/Users/ethan/Documents/GitHub/OpenSesame/Sternberg/experiment_files,no,mono,no,18,no,white,no,no,768,legacy,legacy,7,osweb,1.3.8,1,y,right,right,,right,right,right,518,16059,,89681,2734,518,2,legacy,1600892911945,1,1024,2,48000,-16,experiment,1,odd,7,562490,427015,,553062,58,560260,559228,58,162641,564510,561276,565039,58,564509,Sternberg,66,60392,75,yes,1024
88,88,802,802,black,no,experiment,legacy,legacy,legacy,0,uniform,1,right,75,75,75,75,0,0,0,75,75,0,0,75,75,75,0,0,75,75,0,Wed Sep 23 2020 22:27:07 GMT+0200 (CEST),The main experiment item,yes,/Users/ethan/Documents/GitHub/OpenSesame/Sternberg/experiment_files,no,mono,no,18,no,white,no,no,768,legacy,legacy,6 9 3 1,osweb,1.3.8,4,y,right,right,,right,right,right,553,16059,,89681,2734,553,2,legacy,1600892911945,4,1024,2,48000,-16,experiment,1,odd,1,568307,427015,,565044,58,566077,559228,58,162641,570326,567093,570889,58,570325,Sternberg,67,60945,76,yes,1024
88,88,801,801,black,no,experiment,legacy,legacy,legacy,0,uniform,1,right,76,76,76,76,0,0,0,76,76,0,0,76,76,76,0,0,76,76,0,Wed Sep 23 2020 22:27:07 GMT+0200 (CEST),The main experiment item,yes,/Users/ethan/Documents/GitHub/OpenSesame/Sternberg/experiment_files,no,mono,no,18,no,white,no,no,768,legacy,legacy,8 5 4 7 3 1,osweb,1.3.8,2,y,right,right,,right,right,right,712,16059,,89681,2734,712,2,legacy,1600892911945,6,1024,2,48000,-16,experiment,1,odd,5,574157,427015,,570893,58,571923,559228,58,162641,576175,572943,576889,58,576175,Sternberg,68,61657,77,yes,1024
87,87,811,811,black,no,experiment,legacy,legacy,legacy,0,uniform,0,right,77,77,77,77,0,0,0,77,77,0,0,77,77,77,0,0,77,77,0,Wed Sep 23 2020 22:27:07 GMT+0200 (CEST),The main experiment item,yes,/Users/ethan/Documents/GitHub/OpenSesame/Sternberg/experiment_files,no,mono,no,18,no,white,no,no,768,legacy,legacy,8 9 5 6 7,osweb,1.3.8,1,y,left,right,,right,right,left,1622,16059,,89681,2734,1622,2,legacy,1600892911945,5,1024,2,48000,-16,experiment,1,odd,8,580157,427015,,576893,58,577930,559228,58,162641,582176,578942,583806,58,582176,Sternberg,68,63279,78,yes,1024
87,87,810,810,black,no,experiment,legacy,legacy,legacy,0,uniform,1,left,78,78,78,78,0,0,0,78,78,0,0,78,78,78,0,0,78,78,0,Wed Sep 23 2020 22:27:07 GMT+0200 (CEST),The main experiment item,yes,/Users/ethan/Documents/GitHub/OpenSesame/Sternberg/experiment_files,no,mono,no,18,no,white,no,no,768,legacy,legacy,6 2 9 3 8 4,osweb,1.3.8,0,n,left,right,,right,right,left,736,16059,,89681,2734,736,2,legacy,1600892911945,6,1024,2,48000,-16,experiment,1,odd,1,587073,427015,,576893,58,584844,583812,58,162641,589092,585859,589839,58,589092,Sternberg,69,64015,79,yes,1024
88,88,809,809,black,no,experiment,legacy,legacy,legacy,0,uniform,1,left,79,79,79,79,0,0,0,79,79,0,0,79,79,79,0,0,79,79,0,Wed Sep 23 2020 22:27:07 GMT+0200 (CEST),The main experiment item,yes,/Users/ethan/Documents/GitHub/OpenSesame/Sternberg/experiment_files,no,mono,no,18,no,white,no,no,768,legacy,legacy,7 9 1 6,osweb,1.3.8,0,n,left,right,,right,right,left,688,16059,,89681,2734,688,2,legacy,1600892911945,4,1024,2,48000,-16,experiment,1,odd,4,593107,427015,,589845,58,590876,583812,58,162641,595126,591892,595823,58,595126,Sternberg,70,64703,80,yes,1024
88,88,807,807,black,no,experiment,legacy,legacy,legacy,0,uniform,1,left,80,80,80,80,0,0,0,80,80,0,0,80,80,80,0,0,80,80,0,Wed Sep 23 2020 22:27:07 GMT+0200 (CEST),The main experiment item,yes,/Users/ethan/Documents/GitHub/OpenSesame/Sternberg/experiment_files,no,mono,no,18,no,white,no,no,768,legacy,legacy,2 6 4 3 9,osweb,1.3.8,0,n,left,right,,right,right,left,652,16059,,89681,2734,652,2,legacy,1600892911945,5,1024,2,48000,-16,experiment,1,odd,1,599091,427015,,595827,58,596860,583812,58,162641,601109,597878,601773,58,601109,Sternberg,71,65355,81,yes,1024
88,88,806,806,black,no,experiment,legacy,legacy,legacy,0,uniform,1,left,81,81,81,81,0,0,0,81,81,0,0,81,81,81,0,0,81,81,0,Wed Sep 23 2020 22:27:07 GMT+0200 (CEST),The main experiment item,yes,/Users/ethan/Documents/GitHub/OpenSesame/Sternberg/experiment_files,no,mono,no,18,no,white,no,no,768,legacy,legacy,2 8 9 4 1,osweb,1.3.8,0,n,left,right,,right,right,left,769,16059,,89681,2734,769,2,legacy,1600892911945,5,1024,2,48000,-16,experiment,1,odd,5,605040,427015,,601778,58,602808,583812,58,162641,607059,603825,607839,58,607059,Sternberg,72,66124,82,yes,1024
88,88,810,810,black,no,experiment,legacy,legacy,legacy,0,uniform,1,right,82,82,82,82,0,0,0,82,82,0,0,82,82,82,0,0,82,82,0,Wed Sep 23 2020 22:27:07 GMT+0200 (CEST),The main experiment item,yes,/Users/ethan/Documents/GitHub/OpenSesame/Sternberg/experiment_files,no,mono,no,18,no,white,no,no,768,legacy,legacy,9 1 6 7 8,osweb,1.3.8,1,y,right,right,,right,right,right,1119,16059,,89681,2734,1119,2,legacy,1600892911945,5,1024,2,48000,-16,experiment,1,odd,9,611106,427015,,607844,58,608875,583812,58,162641,613125,609892,614255,58,613125,Sternberg,73,67243,83,yes,1024
88,88,815,815,black,no,experiment,legacy,legacy,legacy,0,uniform,1,left,83,83,83,83,0,0,0,83,83,0,0,83,83,83,0,0,83,83,0,Wed Sep 23 2020 22:27:07 GMT+0200 (CEST),The main experiment item,yes,/Users/ethan/Documents/GitHub/OpenSesame/Sternberg/experiment_files,no,mono,no,18,no,white,no,no,768,legacy,legacy,7 4 2 8 1 9,osweb,1.3.8,0,n,left,right,,right,right,left,1199,16059,,89681,2734,1199,2,legacy,1600892911945,6,1024,2,48000,-16,experiment,1,odd,5,617523,427015,,614257,58,615293,583812,58,162641,619542,616309,620755,58,619542,Sternberg,74,68442,84,yes,1024
88,88,813,813,black,no,experiment,legacy,legacy,legacy,0,uniform,1,right,84,84,84,84,0,0,0,84,84,0,0,84,84,84,0,0,84,84,0,Wed Sep 23 2020 22:27:07 GMT+0200 (CEST),The main experiment item,yes,/Users/ethan/Documents/GitHub/OpenSesame/Sternberg/experiment_files,no,mono,no,18,no,white,no,no,768,legacy,legacy,3 4 9 6 2 9,osweb,1.3.8,5,y,right,right,,right,right,right,634,16059,,89681,2734,634,2,legacy,1600892911945,6,1024,2,48000,-16,experiment,1,odd,2,624024,427015,,620759,58,621793,583812,58,162641,626043,622812,626688,58,626043,Sternberg,75,69076,85,yes,1024
88,88,816,816,black,no,experiment,legacy,legacy,legacy,0,uniform,1,left,85,85,85,85,0,0,0,85,85,0,0,85,85,85,0,0,85,85,0,Wed Sep 23 2020 22:27:07 GMT+0200 (CEST),The main experiment item,yes,/Users/ethan/Documents/GitHub/OpenSesame/Sternberg/experiment_files,no,mono,no,18,no,white,no,no,768,legacy,legacy,5 3 8 7 2 4,osweb,1.3.8,0,n,left,right,,right,right,left,1103,16059,,89681,2734,1103,2,legacy,1600892911945,6,1024,2,48000,-16,experiment,1,odd,9,629956,427015,,626694,58,627726,583812,58,162641,631975,628742,633089,58,631975,Sternberg,76,70179,86,yes,1024
89,89,812,812,black,no,experiment,legacy,legacy,legacy,0,uniform,1,right,86,86,86,86,0,0,0,86,86,0,0,86,86,86,0,0,86,86,0,Wed Sep 23 2020 22:27:07 GMT+0200 (CEST),The main experiment item,yes,/Users/ethan/Documents/GitHub/OpenSesame/Sternberg/experiment_files,no,mono,no,18,no,white,no,no,768,legacy,legacy,3 9 6 2,osweb,1.3.8,4,y,right,right,,right,right,right,502,16059,,89681,2734,502,2,legacy,1600892911945,4,1024,2,48000,-16,experiment,1,odd,2,636356,427015,,633094,58,634126,583812,58,162641,638375,635142,638888,58,638375,Sternberg,77,70681,87,yes,1024
89,89,811,811,black,no,experiment,legacy,legacy,legacy,0,uniform,1,left,87,87,87,87,0,0,0,87,87,0,0,87,87,87,0,0,87,87,0,Wed Sep 23 2020 22:27:07 GMT+0200 (CEST),The main experiment item,yes,/Users/ethan/Documents/GitHub/OpenSesame/Sternberg/experiment_files,no,mono,no,18,no,white,no,no,768,legacy,legacy,2 7 5,osweb,1.3.8,0,n,left,right,,right,right,left,720,16059,,89681,2734,720,2,legacy,1600892911945,3,1024,2,48000,-16,experiment,1,odd,8,642156,427015,,638892,58,639925,583812,58,162641,644175,640941,644905,58,644175,Sternberg,78,71401,88,yes,1024
89,89,809,809,black,no,experiment,legacy,legacy,legacy,0,uniform,1,left,88,88,88,88,0,0,0,88,88,0,0,88,88,88,0,0,88,88,0,Wed Sep 23 2020 22:27:07 GMT+0200 (CEST),The main experiment item,yes,/Users/ethan/Documents/GitHub/OpenSesame/Sternberg/experiment_files,no,mono,no,18,no,white,no,no,768,legacy,legacy,7 8 6 1,osweb,1.3.8,0,n,left,right,,right,right,left,638,16059,,89681,2734,638,2,legacy,1600892911945,4,1024,2,48000,-16,experiment,1,odd,3,648173,427015,,644908,58,645943,583812,58,162641,650192,646958,650838,58,650192,Sternberg,79,72039,89,yes,1024
89,89,812,812,black,no,experiment,legacy,legacy,legacy,0,uniform,1,right,89,89,89,89,0,0,0,89,89,0,0,89,89,89,0,0,89,89,0,Wed Sep 23 2020 22:27:07 GMT+0200 (CEST),The main experiment item,yes,/Users/ethan/Documents/GitHub/OpenSesame/Sternberg/experiment_files,no,mono,no,18,no,white,no,no,768,legacy,legacy,2 4 8 5 1 3,osweb,1.3.8,1,y,right,right,,right,right,right,1047,16059,,89681,2734,1047,2,legacy,1600892911945,6,1024,2,48000,-16,experiment,1,odd,2,654106,427015,,650842,58,651874,583812,58,162641,656124,652892,657172,58,656124,Sternberg,80,73086,90,yes,1024
89,89,810,810,black,no,experiment,legacy,legacy,legacy,0,uniform,1,right,90,90,90,90,0,0,0,90,90,0,0,90,90,90,0,0,90,90,0,Wed Sep 23 2020 22:27:07 GMT+0200 (CEST),The main experiment item,yes,/Users/ethan/Documents/GitHub/OpenSesame/Sternberg/experiment_files,no,mono,no,18,no,white,no,no,768,legacy,legacy,2 3 7 4,osweb,1.3.8,1,y,right,right,,right,right,right,616,16059,,89681,2734,616,2,legacy,1600892911945,4,1024,2,48000,-16,experiment,1,odd,2,660439,427015,,657176,58,658210,583812,58,162641,662458,659224,663088,58,662458,Sternberg,81,73702,91,yes,1024
89,89,808,808,black,no,experiment,legacy,legacy,legacy,0,uniform,1,left,91,91,91,91,0,0,0,91,91,0,0,91,91,91,0,0,91,91,0,Wed Sep 23 2020 22:27:07 GMT+0200 (CEST),The main experiment item,yes,/Users/ethan/Documents/GitHub/OpenSesame/Sternberg/experiment_files,no,mono,no,18,no,white,no,no,768,legacy,legacy,2 3 8 5 6 7,osweb,1.3.8,0,n,left,right,,right,right,left,665,16059,,89681,2734,665,2,legacy,1600892911945,6,1024,2,48000,-16,experiment,1,odd,1,666356,427015,,663093,58,664126,583812,58,162641,668375,665141,669055,58,668375,Sternberg,82,74367,92,yes,1024
89,89,807,807,black,no,experiment,legacy,legacy,legacy,0,uniform,1,left,92,92,92,92,0,0,0,92,92,0,0,92,92,92,0,0,92,92,0,Wed Sep 23 2020 22:27:07 GMT+0200 (CEST),The main experiment item,yes,/Users/ethan/Documents/GitHub/OpenSesame/Sternberg/experiment_files,no,mono,no,18,no,white,no,no,768,legacy,legacy,8 6 3 4 7,osweb,1.3.8,0,n,left,right,,right,right,left,708,16059,,89681,2734,708,2,legacy,1600892911945,5,1024,2,48000,-16,experiment,1,odd,1,672323,427015,,669060,58,670092,583812,58,162641,674342,671111,675055,58,674342,Sternberg,83,75075,93,yes,1024
89,89,803,803,black,no,experiment,legacy,legacy,legacy,0,uniform,1,right,93,93,93,93,0,0,0,93,93,0,0,93,93,93,0,0,93,93,0,Wed Sep 23 2020 22:27:07 GMT+0200 (CEST),The main experiment item,yes,/Users/ethan/Documents/GitHub/OpenSesame/Sternberg/experiment_files,no,mono,no,18,no,white,no,no,768,legacy,legacy,8,osweb,1.3.8,1,y,right,right,,right,right,right,409,16059,,89681,2734,409,2,legacy,1600892911945,1,1024,2,48000,-16,experiment,1,odd,8,678322,427015,,675061,58,676094,583812,58,162641,680341,677107,680754,58,680341,Sternberg,84,75484,94,yes,1024
89,89,803,803,black,no,experiment,legacy,legacy,legacy,0,uniform,1,right,94,94,94,94,0,0,0,94,94,0,0,94,94,94,0,0,94,94,0,Wed Sep 23 2020 22:27:07 GMT+0200 (CEST),The main experiment item,yes,/Users/ethan/Documents/GitHub/OpenSesame/Sternberg/experiment_files,no,mono,no,18,no,white,no,no,768,legacy,legacy,8 5 1 3 9,osweb,1.3.8,4,y,right,right,,right,right,right,781,16059,,89681,2734,781,2,legacy,1600892911945,5,1024,2,48000,-16,experiment,1,odd,3,684022,427015,,680758,58,681793,583812,58,162641,686041,682807,686837,58,686041,Sternberg,85,76265,95,yes,1024
90,90,800,800,black,no,experiment,legacy,legacy,legacy,0,uniform,1,right,95,95,95,95,0,0,0,95,95,0,0,95,95,95,0,0,95,95,0,Wed Sep 23 2020 22:27:07 GMT+0200 (CEST),The main experiment item,yes,/Users/ethan/Documents/GitHub/OpenSesame/Sternberg/experiment_files,no,mono,no,18,no,white,no,no,768,legacy,legacy,8 1 6,osweb,1.3.8,3,y,right,right,,right,right,right,577,16059,,89681,2734,577,2,legacy,1600892911945,3,1024,2,48000,-16,experiment,1,odd,6,690105,427015,,686842,58,687875,583812,58,162641,692125,688890,692704,58,692125,Sternberg,86,76842,96,yes,1024
90,90,797,797,black,no,experiment,legacy,legacy,legacy,0,uniform,1,right,96,96,96,96,0,0,0,96,96,0,0,96,96,96,0,0,96,96,0,Wed Sep 23 2020 22:27:07 GMT+0200 (CEST),The main experiment item,yes,/Users/ethan/Documents/GitHub/OpenSesame/Sternberg/experiment_files,no,mono,no,18,no,white,no,no,768,legacy,legacy,8 7 3,osweb,1.3.8,1,y,right,right,,right,right,right,490,16059,,89681,2734,490,2,legacy,1600892911945,3,1024,2,48000,-16,experiment,1,odd,8,695972,427015,,692709,58,693741,583812,58,162641,697990,694757,698488,58,697990,Sternberg,87,77332,97,yes,1024
90,90,797,797,black,no,experiment,legacy,legacy,legacy,0,uniform,1,left,97,97,97,97,0,0,0,97,97,0,0,97,97,97,0,0,97,97,0,Wed Sep 23 2020 22:27:07 GMT+0200 (CEST),The main experiment item,yes,/Users/ethan/Documents/GitHub/OpenSesame/Sternberg/experiment_files,no,mono,no,18,no,white,no,no,768,legacy,legacy,8 9,osweb,1.3.8,0,n,left,right,right,right,right,left,758,16059,4798,89681,2734,758,2,legacy,1600892911945,2,1024,2,48000,-16,experiment,1,odd,5,706573,427015,699513,698491,58,704343,583812,58,162641,708595,705359,709353,58,708595,Sternberg,88,78090,98,yes,1024
90,90,795,795,black,no,experiment,legacy,legacy,legacy,0,uniform,1,left,98,98,98,98,0,0,0,98,98,0,0,98,98,98,0,0,98,98,0,Wed Sep 23 2020 22:27:07 GMT+0200 (CEST),The main experiment item,yes,/Users/ethan/Documents/GitHub/OpenSesame/Sternberg/experiment_files,no,mono,no,18,no,white,no,no,768,legacy,legacy,1 5 3 2 8,osweb,1.3.8,0,n,left,right,right,right,right,left,593,16059,4798,89681,2734,593,2,legacy,1600892911945,5,1024,2,48000,-16,experiment,1,odd,4,712622,427015,699513,709361,58,710393,583812,58,162641,714644,711409,715237,58,714644,Sternberg,89,78683,99,yes,1024
90,90,793,793,black,no,experiment,legacy,legacy,legacy,0,uniform,1,right,99,99,99,99,0,0,0,99,99,0,0,99,99,99,0,0,99,99,0,Wed Sep 23 2020 22:27:07 GMT+0200 (CEST),The main experiment item,yes,/Users/ethan/Documents/GitHub/OpenSesame/Sternberg/experiment_files,no,mono,no,18,no,white,no,no,768,legacy,legacy,6 8 9 3 4 9,osweb,1.3.8,5,y,right,right,right,right,right,right,602,16059,4798,89681,2734,602,2,legacy,1600892911945,6,1024,2,48000,-16,experiment,1,odd,4,718505,427015,699513,715244,58,716275,583812,58,162641,720527,717292,721137,58,720527,Sternberg,90,79285,100,yes,1024
90,90,792,792,black,no,experiment,legacy,legacy,legacy,0,uniform,1,left,100,100,100,100,0,0,0,100,100,0,0,100,100,100,0,0,100,100,0,Wed Sep 23 2020 22:27:07 GMT+0200 (CEST),The main experiment item,yes,/Users/ethan/Documents/GitHub/OpenSesame/Sternberg/experiment_files,no,mono,no,18,no,white,no,no,768,legacy,legacy,6 9 4 5 2,osweb,1.3.8,0,n,left,right,right,right,right,left,677,16059,4798,89681,2734,677,2,legacy,1600892911945,5,1024,2,48000,-16,experiment,1,odd,1,724405,427015,699513,721143,58,722175,583812,58,162641,726427,723192,727121,58,726427,Sternberg,91,79962,101,yes,1024
90,90,788,788,black,no,experiment,legacy,legacy,legacy,0,uniform,1,right,101,101,101,101,0,0,0,101,101,0,0,101,101,101,0,0,101,101,0,Wed Sep 23 2020 22:27:07 GMT+0200 (CEST),The main experiment item,yes,/Users/ethan/Documents/GitHub/OpenSesame/Sternberg/experiment_files,no,mono,no,18,no,white,no,no,768,legacy,legacy,5 2 6,osweb,1.3.8,2,y,right,right,right,right,right,right,409,16059,4798,89681,2734,409,2,legacy,1600892911945,3,1024,2,48000,-16,experiment,1,odd,2,730388,427015,699513,727128,58,728160,583812,58,162641,732410,729176,732821,58,732410,Sternberg,92,80371,102,yes,1024
90,90,792,792,black,no,experiment,legacy,legacy,legacy,0,uniform,1,right,102,102,102,102,0,0,0,102,102,0,0,102,102,102,0,0,102,102,0,Wed Sep 23 2020 22:27:07 GMT+0200 (CEST),The main experiment item,yes,/Users/ethan/Documents/GitHub/OpenSesame/Sternberg/experiment_files,no,mono,no,18,no,white,no,no,768,legacy,legacy,9 4 2,osweb,1.3.8,1,y,right,right,right,right,right,right,1176,16059,4798,89681,2734,1176,2,legacy,1600892911945,3,1024,2,48000,-16,experiment,1,odd,9,736088,427015,699513,732827,58,733859,583812,58,162641,738110,734875,739287,58,738110,Sternberg,93,81547,103,yes,1024
90,90,793,793,black,no,experiment,legacy,legacy,legacy,0,uniform,1,left,103,103,103,103,0,0,0,103,103,0,0,103,103,103,0,0,103,103,0,Wed Sep 23 2020 22:27:07 GMT+0200 (CEST),The main experiment item,yes,/Users/ethan/Documents/GitHub/OpenSesame/Sternberg/experiment_files,no,mono,no,18,no,white,no,no,768,legacy,legacy,3 9 1,osweb,1.3.8,0,n,left,right,right,right,right,left,972,16059,4798,89681,2734,972,2,legacy,1600892911945,3,1024,2,48000,-16,experiment,1,odd,7,742555,427015,699513,739293,58,740325,583812,58,162641,744577,741342,745554,58,744577,Sternberg,94,82519,104,yes,1024
90,90,791,791,black,no,experiment,legacy,legacy,legacy,0,uniform,1,left,104,104,104,104,0,0,0,104,104,0,0,104,104,104,0,0,104,104,0,Wed Sep 23 2020 22:27:07 GMT+0200 (CEST),The main experiment item,yes,/Users/ethan/Documents/GitHub/OpenSesame/Sternberg/experiment_files,no,mono,no,18,no,white,no,no,768,legacy,legacy,1 6 4,osweb,1.3.8,0,n,left,right,right,right,right,left,563,16059,4798,89681,2734,563,2,legacy,1600892911945,3,1024,2,48000,-16,experiment,1,odd,7,748821,427015,699513,745558,58,746591,583812,58,162641,750843,747608,751420,58,750843,Sternberg,95,83082,105,yes,1024
91,91,794,794,black,no,experiment,legacy,legacy,legacy,0,uniform,1,left,105,105,105,105,0,0,0,105,105,0,0,105,105,105,0,0,105,105,0,Wed Sep 23 2020 22:27:07 GMT+0200 (CEST),The main experiment item,yes,/Users/ethan/Documents/GitHub/OpenSesame/Sternberg/experiment_files,no,mono,no,18,no,white,no,no,768,legacy,legacy,6 9 7 3 8 2,osweb,1.3.8,0,n,left,right,right,right,right,left,1036,16059,4798,89681,2734,1036,2,legacy,1600892911945,6,1024,2,48000,-16,experiment,1,odd,5,754688,427015,699513,751426,58,752458,583812,58,162641,756709,753477,757754,58,756709,Sternberg,96,84118,106,yes,1024
91,91,793,793,black,no,experiment,legacy,legacy,legacy,0,uniform,1,left,106,106,106,106,0,0,0,106,106,0,0,106,106,106,0,0,106,106,0,Wed Sep 23 2020 22:27:07 GMT+0200 (CEST),The main experiment item,yes,/Users/ethan/Documents/GitHub/OpenSesame/Sternberg/experiment_files,no,mono,no,18,no,white,no,no,768,legacy,legacy,6 9 4 5 3 2,osweb,1.3.8,0,n,left,right,right,right,right,left,682,16059,4798,89681,2734,682,2,legacy,1600892911945,6,1024,2,48000,-16,experiment,1,odd,8,761021,427015,699513,757763,58,758792,583812,58,162641,763042,759809,763737,58,763042,Sternberg,97,84800,107,yes,1024
91,91,791,791,black,no,experiment,legacy,legacy,legacy,0,uniform,1,right,107,107,107,107,0,0,0,107,107,0,0,107,107,107,0,0,107,107,0,Wed Sep 23 2020 22:27:07 GMT+0200 (CEST),The main experiment item,yes,/Users/ethan/Documents/GitHub/OpenSesame/Sternberg/experiment_files,no,mono,no,18,no,white,no,no,768,legacy,legacy,2 5 4 8 7,osweb,1.3.8,3,y,right,right,right,right,right,right,641,16059,4798,89681,2734,641,2,legacy,1600892911945,5,1024,2,48000,-16,experiment,1,odd,4,767004,427015,699513,763743,58,764775,583812,58,162641,769025,765791,769670,58,769025,Sternberg,98,85441,108,yes,1024
91,91,790,790,black,no,experiment,legacy,legacy,legacy,0,uniform,1,right,108,108,108,108,0,0,0,108,108,0,0,108,108,108,0,0,108,108,0,Wed Sep 23 2020 22:27:07 GMT+0200 (CEST),The main experiment item,yes,/Users/ethan/Documents/GitHub/OpenSesame/Sternberg/experiment_files,no,mono,no,18,no,white,no,no,768,legacy,legacy,3 9 7 6 4,osweb,1.3.8,3,y,right,right,right,right,right,right,616,16059,4798,89681,2734,616,2,legacy,1600892911945,5,1024,2,48000,-16,experiment,1,odd,7,772938,427015,699513,769676,58,770708,583812,58,162641,774962,771725,775587,58,774962,Sternberg,99,86057,109,yes,1024
91,91,787,787,black,no,experiment,legacy,legacy,legacy,0,uniform,1,right,109,109,109,109,0,0,0,109,109,0,0,109,109,109,0,0,109,109,0,Wed Sep 23 2020 22:27:07 GMT+0200 (CEST),The main experiment item,yes,/Users/ethan/Documents/GitHub/OpenSesame/Sternberg/experiment_files,no,mono,no,18,no,white,no,no,768,legacy,legacy,4 9 7 8 5 3,osweb,1.3.8,4,y,right,right,right,right,right,right,559,16059,4798,89681,2734,559,2,legacy,1600892911945,6,1024,2,48000,-16,experiment,1,odd,8,778855,427015,699513,775593,58,776625,583812,58,162641,780875,777641,781436,58,780875,Sternberg,100,86616,110,yes,1024
91,91,788,788,black,no,experiment,legacy,legacy,legacy,0,uniform,1,right,110,110,110,110,0,0,0,110,110,0,0,110,110,110,0,0,110,110,0,Wed Sep 23 2020 22:27:07 GMT+0200 (CEST),The main experiment item,yes,/Users/ethan/Documents/GitHub/OpenSesame/Sternberg/experiment_files,no,mono,no,18,no,white,no,no,768,legacy,legacy,3 5 4 7,osweb,1.3.8,1,y,right,right,right,right,right,right,858,16059,4798,89681,2734,858,2,legacy,1600892911945,4,1024,2,48000,-16,experiment,1,odd,3,784703,427015,699513,781442,58,782475,583812,58,162641,786726,783493,787586,58,786726,Sternberg,101,87474,111,yes,1024
91,91,785,785,black,no,experiment,legacy,legacy,legacy,0,uniform,1,left,111,111,111,111,0,0,0,111,111,0,0,111,111,111,0,0,111,111,0,Wed Sep 23 2020 22:27:07 GMT+0200 (CEST),The main experiment item,yes,/Users/ethan/Documents/GitHub/OpenSesame/Sternberg/experiment_files,no,mono,no,18,no,white,no,no,768,legacy,legacy,1,osweb,1.3.8,0,n,left,right,right,right,right,left,492,16059,4798,89681,2734,492,2,legacy,1600892911945,1,1024,2,48000,-16,experiment,1,odd,7,790854,427015,699513,787592,58,788624,583812,58,162641,792875,789639,793369,58,792875,Sternberg,102,87966,112,yes,1024
91,91,783,783,black,no,experiment,legacy,legacy,legacy,0,uniform,1,left,112,112,112,112,0,0,0,112,112,0,0,112,112,112,0,0,112,112,0,Wed Sep 23 2020 22:27:07 GMT+0200 (CEST),The main experiment item,yes,/Users/ethan/Documents/GitHub/OpenSesame/Sternberg/experiment_files,no,mono,no,18,no,white,no,no,768,legacy,legacy,1 4 9 2 5,osweb,1.3.8,0,n,left,right,right,right,right,left,568,16059,4798,89681,2734,568,2,legacy,1600892911945,5,1024,2,48000,-16,experiment,1,odd,7,796636,427015,699513,793375,58,794407,583812,58,162641,798642,795424,799219,58,798642,Sternberg,103,88534,113,yes,1024
91,91,782,782,black,no,experiment,legacy,legacy,legacy,0,uniform,1,right,113,113,113,113,0,0,0,113,113,0,0,113,113,113,0,0,113,113,0,Wed Sep 23 2020 22:27:07 GMT+0200 (CEST),The main experiment item,yes,/Users/ethan/Documents/GitHub/OpenSesame/Sternberg/experiment_files,no,mono,no,18,no,white,no,no,768,legacy,legacy,9 3 8 2 1 4,osweb,1.3.8,3,y,right,right,right,right,right,right,663,16059,4798,89681,2734,663,2,legacy,1600892911945,6,1024,2,48000,-16,experiment,1,odd,8,802488,427015,699513,799225,58,800258,583812,58,162641,804509,801277,805187,58,804509,Sternberg,104,89197,114,yes,1024
91,91,781,781,black,no,experiment,legacy,legacy,legacy,0,uniform,1,right,114,114,114,114,0,0,0,114,114,0,0,114,114,114,0,0,114,114,0,Wed Sep 23 2020 22:27:07 GMT+0200 (CEST),The main experiment item,yes,/Users/ethan/Documents/GitHub/OpenSesame/Sternberg/experiment_files,no,mono,no,18,no,white,no,no,768,legacy,legacy,4 1 8 7 5,osweb,1.3.8,3,y,right,right,right,right,right,right,564,16059,4798,89681,2734,564,2,legacy,1600892911945,5,1024,2,48000,-16,experiment,1,odd,8,808454,427015,699513,805195,58,806226,583812,58,162641,810476,807242,811053,58,810476,Sternberg,105,89761,115,yes,1024
91,91,782,782,black,no,experiment,legacy,legacy,legacy,0,uniform,1,left,115,115,115,115,0,0,0,115,115,0,0,115,115,115,0,0,115,115,0,Wed Sep 23 2020 22:27:07 GMT+0200 (CEST),The main experiment item,yes,/Users/ethan/Documents/GitHub/OpenSesame/Sternberg/experiment_files,no,mono,no,18,no,white,no,no,768,legacy,legacy,9 7 4 5 8,osweb,1.3.8,0,n,left,right,right,right,right,left,965,16059,4798,89681,2734,965,2,legacy,1600892911945,5,1024,2,48000,-16,experiment,1,odd,6,814320,427015,699513,811060,58,812086,583812,58,162641,816342,813108,817320,58,816342,Sternberg,106,90726,116,yes,1024
91,91,780,780,black,no,experiment,legacy,legacy,legacy,0,uniform,1,right,116,116,116,116,0,0,0,116,116,0,0,116,116,116,0,0,116,116,0,Wed Sep 23 2020 22:27:07 GMT+0200 (CEST),The main experiment item,yes,/Users/ethan/Documents/GitHub/OpenSesame/Sternberg/experiment_files,no,mono,no,18,no,white,no,no,768,legacy,legacy,6 5,osweb,1.3.8,2,y,right,right,right,right,right,right,510,16059,4798,89681,2734,510,2,legacy,1600892911945,2,1024,2,48000,-16,experiment,1,odd,5,820591,427015,699513,817326,58,818355,583812,58,162641,822609,819375,823136,58,822609,Sternberg,107,91236,117,yes,1024
92,92,778,778,black,no,experiment,legacy,legacy,legacy,0,uniform,1,left,117,117,117,117,0,0,0,117,117,0,0,117,117,117,0,0,117,117,0,Wed Sep 23 2020 22:27:07 GMT+0200 (CEST),The main experiment item,yes,/Users/ethan/Documents/GitHub/OpenSesame/Sternberg/experiment_files,no,mono,no,18,no,white,no,no,768,legacy,legacy,5 2,osweb,1.3.8,0,n,left,right,right,right,right,left,575,16059,4798,89681,2734,575,2,legacy,1600892911945,2,1024,2,48000,-16,experiment,1,odd,7,826404,427015,699513,823142,58,824170,583812,58,162641,828425,825194,829003,58,828425,Sternberg,108,91811,118,yes,1024
92,92,782,782,black,no,experiment,legacy,legacy,legacy,0,uniform,1,left,118,118,118,118,0,0,0,118,118,0,0,118,118,118,0,0,118,118,0,Wed Sep 23 2020 22:27:07 GMT+0200 (CEST),The main experiment item,yes,/Users/ethan/Documents/GitHub/OpenSesame/Sternberg/experiment_files,no,mono,no,18,no,white,no,no,768,legacy,legacy,5 3 2 6 9 8,osweb,1.3.8,0,n,left,right,right,right,right,left,1289,16059,4798,89681,2734,1289,2,legacy,1600892911945,6,1024,2,48000,-16,experiment,1,odd,4,832269,427015,699513,829008,58,830042,583812,58,162641,834292,831058,835585,58,834292,Sternberg,109,93100,119,yes,1024
92,92,785,785,black,no,experiment,legacy,legacy,legacy,0,uniform,1,right,119,119,119,119,0,0,0,119,119,0,0,119,119,119,0,0,119,119,0,Wed Sep 23 2020 22:27:07 GMT+0200 (CEST),The main experiment item,yes,/Users/ethan/Documents/GitHub/OpenSesame/Sternberg/experiment_files,no,mono,no,18,no,white,no,no,768,legacy,legacy,4 3 2 5 8,osweb,1.3.8,2,y,right,right,right,right,right,right,1101,16059,4798,89681,2734,1101,2,legacy,1600892911945,5,1024,2,48000,-16,experiment,1,odd,3,838853,427015,699513,835591,58,836624,583812,58,162641,840872,837640,841986,58,840872,Sternberg,110,94201,120,yes,1024
92,92,789,789,black,no,experiment,legacy,legacy,legacy,0,uniform,1,left,120,120,120,120,0,0,0,120,120,0,0,120,120,120,0,0,120,120,0,Wed Sep 23 2020 22:27:07 GMT+0200 (CEST),The main experiment item,yes,/Users/ethan/Documents/GitHub/OpenSesame/Sternberg/experiment_files,no,mono,no,18,no,white,no,no,768,legacy,legacy,7 1 8 4 9 3,osweb,1.3.8,0,n,left,right,right,right,right,left,1296,16059,4798,89681,2734,1296,2,legacy,1600892911945,6,1024,2,48000,-16,experiment,1,odd,6,845254,427015,699513,841993,58,843024,583812,58,162641,847275,844040,848586,58,847275,Sternberg,111,95497,121,yes,1024
92,92,788,788,black,no,experiment,legacy,legacy,legacy,0,uniform,1,right,121,121,121,121,0,0,0,121,121,0,0,121,121,121,0,0,121,121,0,Wed Sep 23 2020 22:27:07 GMT+0200 (CEST),The main experiment item,yes,/Users/ethan/Documents/GitHub/OpenSesame/Sternberg/experiment_files,no,mono,no,18,no,white,no,no,768,legacy,legacy,4 6 2 5 1,osweb,1.3.8,5,y,right,right,right,right,right,right,673,16059,4798,89681,2734,673,2,legacy,1600892911945,5,1024,2,48000,-16,experiment,1,odd,1,851854,427015,699513,848593,58,849624,583812,58,162641,853877,850643,854552,58,853877,Sternberg,112,96170,122,yes,1024
92,92,789,789,black,no,experiment,legacy,legacy,legacy,0,uniform,1,left,122,122,122,122,0,0,0,122,122,0,0,122,122,122,0,0,122,122,0,Wed Sep 23 2020 22:27:07 GMT+0200 (CEST),The main experiment item,yes,/Users/ethan/Documents/GitHub/OpenSesame/Sternberg/experiment_files,no,mono,no,18,no,white,no,no,768,legacy,legacy,6 7 5 9,osweb,1.3.8,0,n,left,right,right,right,right,left,842,16059,4798,89681,2734,842,2,legacy,1600892911945,4,1024,2,48000,-16,experiment,1,odd,2,857819,427015,699513,854560,58,855591,583812,58,162641,859841,856607,860685,58,859841,Sternberg,113,97012,123,yes,1024
91,91,792,792,black,no,experiment,legacy,legacy,legacy,0,uniform,0,right,123,123,123,123,0,0,0,123,123,0,0,123,123,123,0,0,123,123,0,Wed Sep 23 2020 22:27:07 GMT+0200 (CEST),The main experiment item,yes,/Users/ethan/Documents/GitHub/OpenSesame/Sternberg/experiment_files,no,mono,no,18,no,white,no,no,768,legacy,legacy,9 5 3 8 4,osweb,1.3.8,1,y,left,right,right,right,right,left,1184,16059,4798,89681,2734,1184,2,legacy,1600892911945,5,1024,2,48000,-16,experiment,1,odd,9,863953,427015,699513,860692,58,861724,583812,58,162641,865973,862740,867169,58,865973,Sternberg,113,98196,124,yes,1024
90,90,793,793,black,no,experiment,legacy,legacy,legacy,0,uniform,0,right,124,124,124,124,0,0,0,124,124,0,0,124,124,124,0,0,124,124,0,Wed Sep 23 2020 22:27:07 GMT+0200 (CEST),The main experiment item,yes,/Users/ethan/Documents/GitHub/OpenSesame/Sternberg/experiment_files,no,mono,no,18,no,white,no,no,768,legacy,legacy,6 7 8 5,osweb,1.3.8,3,y,left,right,right,right,right,left,945,16059,4798,89681,2734,945,2,legacy,1600892911945,4,1024,2,48000,-16,experiment,1,odd,8,870436,427015,699513,860692,58,868206,867176,58,162641,872458,869223,873419,58,872458,Sternberg,113,99141,125,yes,1024
90,90,792,792,black,no,experiment,legacy,legacy,legacy,0,uniform,1,right,125,125,125,125,0,0,0,125,125,0,0,125,125,125,0,0,125,125,0,Wed Sep 23 2020 22:27:07 GMT+0200 (CEST),The main experiment item,yes,/Users/ethan/Documents/GitHub/OpenSesame/Sternberg/experiment_files,no,mono,no,18,no,white,no,no,768,legacy,legacy,9 8 4,osweb,1.3.8,1,y,right,right,right,right,right,right,617,16059,4798,89681,2734,617,2,legacy,1600892911945,3,1024,2,48000,-16,experiment,1,odd,9,876686,427015,699513,860692,58,874457,873423,58,162641,878708,875474,879335,58,878708,Sternberg,114,99758,126,yes,1024
91,91,790,790,black,no,experiment,legacy,legacy,legacy,0,uniform,1,right,126,126,126,126,0,0,0,126,126,0,0,126,126,126,0,0,126,126,0,Wed Sep 23 2020 22:27:07 GMT+0200 (CEST),The main experiment item,yes,/Users/ethan/Documents/GitHub/OpenSesame/Sternberg/experiment_files,no,mono,no,18,no,white,no,no,768,legacy,legacy,8 5 3 7 4 6,osweb,1.3.8,6,y,right,right,right,right,right,right,632,16059,4798,89681,2734,632,2,legacy,1600892911945,6,1024,2,48000,-16,experiment,1,odd,6,882603,427015,699513,879341,58,880372,873423,58,162641,884625,881393,885268,58,884625,Sternberg,115,100390,127,yes,1024
91,91,789,789,black,no,experiment,legacy,legacy,legacy,0,uniform,1,left,127,127,127,127,0,0,0,127,127,0,0,127,127,127,0,0,127,127,0,Wed Sep 23 2020 22:27:07 GMT+0200 (CEST),The main experiment item,yes,/Users/ethan/Documents/GitHub/OpenSesame/Sternberg/experiment_files,no,mono,no,18,no,white,no,no,768,legacy,legacy,7 9,osweb,1.3.8,0,n,left,right,right,right,right,left,553,16059,4798,89681,2734,553,2,legacy,1600892911945,2,1024,2,48000,-16,experiment,1,odd,1,888536,427015,699513,885274,58,886308,873423,58,162641,890557,887325,891119,58,890557,Sternberg,116,100943,128,yes,1024
91,91,791,791,black,no,experiment,legacy,legacy,legacy,0,uniform,1,left,128,128,128,128,0,0,0,128,128,0,0,128,128,128,0,0,128,128,0,Wed Sep 23 2020 22:27:07 GMT+0200 (CEST),The main experiment item,yes,/Users/ethan/Documents/GitHub/OpenSesame/Sternberg/experiment_files,no,mono,no,18,no,white,no,no,768,legacy,legacy,7 3 2 8,osweb,1.3.8,0,n,left,right,right,right,right,left,1140,16059,4798,89681,2734,1140,2,legacy,1600892911945,4,1024,2,48000,-16,experiment,1,odd,4,894386,427015,699513,891124,58,892157,873423,58,162641,896407,893173,897552,58,896407,Sternberg,117,102083,129,yes,1024
91,91,790,790,black,no,experiment,legacy,legacy,legacy,0,uniform,1,right,129,129,129,129,0,0,0,129,129,0,0,129,129,129,0,0,129,129,0,Wed Sep 23 2020 22:27:07 GMT+0200 (CEST),The main experiment item,yes,/Users/ethan/Documents/GitHub/OpenSesame/Sternberg/experiment_files,no,mono,no,18,no,white,no,no,768,legacy,legacy,3 2 1 4 7,osweb,1.3.8,2,y,right,right,right,right,right,right,663,16059,4798,89681,2734,663,2,legacy,1600892911945,5,1024,2,48000,-16,experiment,1,odd,2,900822,427015,699513,897556,58,898590,873423,58,162641,902842,899606,903519,58,902842,Sternberg,118,102746,130,yes,1024
91,91,790,790,black,no,experiment,legacy,legacy,legacy,0,uniform,1,left,130,130,130,130,0,0,0,130,130,0,0,130,130,130,0,0,130,130,0,Wed Sep 23 2020 22:27:07 GMT+0200 (CEST),The main experiment item,yes,/Users/ethan/Documents/GitHub/OpenSesame/Sternberg/experiment_files,no,mono,no,18,no,white,no,no,768,legacy,legacy,5 7 3,osweb,1.3.8,0,n,left,right,right,right,right,left,776,16059,4798,89681,2734,776,2,legacy,1600892911945,3,1024,2,48000,-16,experiment,1,odd,9,906786,427015,699513,903526,58,904557,873423,58,162641,908807,905571,909585,58,908807,Sternberg,119,103522,131,yes,1024
91,91,788,788,black,no,experiment,legacy,legacy,legacy,0,uniform,1,left,131,131,131,131,0,0,0,131,131,0,0,131,131,131,0,0,131,131,0,Wed Sep 23 2020 22:27:07 GMT+0200 (CEST),The main experiment item,yes,/Users/ethan/Documents/GitHub/OpenSesame/Sternberg/experiment_files,no,mono,no,18,no,white,no,no,768,legacy,legacy,5,osweb,1.3.8,0,n,left,right,right,right,right,left,506,16059,4798,89681,2734,506,2,legacy,1600892911945,1,1024,2,48000,-16,experiment,1,odd,8,912852,427015,699513,909591,58,910621,873423,58,162641,914873,911640,915385,58,914873,Sternberg,120,104028,132,yes,1024
91,91,787,787,black,no,experiment,legacy,legacy,legacy,0,uniform,1,right,132,132,132,132,0,0,0,132,132,0,0,132,132,132,0,0,132,132,0,Wed Sep 23 2020 22:27:07 GMT+0200 (CEST),The main experiment item,yes,/Users/ethan/Documents/GitHub/OpenSesame/Sternberg/experiment_files,no,mono,no,18,no,white,no,no,768,legacy,legacy,7 1 3,osweb,1.3.8,2,y,right,right,right,right,right,right,590,16059,4798,89681,2734,590,2,legacy,1600892911945,3,1024,2,48000,-16,experiment,1,odd,1,918652,427015,699513,915390,58,916423,873423,58,162641,920673,917439,921268,58,920673,Sternberg,121,104618,133,yes,1024
91,91,785,785,black,no,experiment,legacy,legacy,legacy,0,uniform,1,right,133,133,133,133,0,0,0,133,133,0,0,133,133,133,0,0,133,133,0,Wed Sep 23 2020 22:27:07 GMT+0200 (CEST),The main experiment item,yes,/Users/ethan/Documents/GitHub/OpenSesame/Sternberg/experiment_files,no,mono,no,18,no,white,no,no,768,legacy,legacy,7 8 6 3 1,osweb,1.3.8,5,y,right,right,right,right,right,right,520,16059,4798,89681,2734,520,2,legacy,1600892911945,5,1024,2,48000,-16,experiment,1,odd,1,924536,427015,699513,921274,58,922307,873423,58,162641,926556,923323,927085,58,926556,Sternberg,122,105138,134,yes,1024
91,91,782,782,black,no,experiment,legacy,legacy,legacy,0,uniform,1,right,134,134,134,134,0,0,0,134,134,0,0,134,134,134,0,0,134,134,0,Wed Sep 23 2020 22:27:07 GMT+0200 (CEST),The main experiment item,yes,/Users/ethan/Documents/GitHub/OpenSesame/Sternberg/experiment_files,no,mono,no,18,no,white,no,no,768,legacy,legacy,9 1 7 2,osweb,1.3.8,2,y,right,right,right,right,right,right,469,16059,4798,89681,2734,469,2,legacy,1600892911945,4,1024,2,48000,-16,experiment,1,odd,1,930352,427015,699513,927092,58,928123,873423,58,162641,932373,929139,932851,58,932373,Sternberg,123,105607,135,yes,1024
90,90,783,783,black,no,experiment,legacy,legacy,legacy,0,uniform,0,left,135,135,135,135,0,0,0,135,135,0,0,135,135,135,0,0,135,135,0,Wed Sep 23 2020 22:27:07 GMT+0200 (CEST),The main experiment item,yes,/Users/ethan/Documents/GitHub/OpenSesame/Sternberg/experiment_files,no,mono,no,18,no,white,no,no,768,legacy,legacy,3 4 9 6 7 8,osweb,1.3.8,0,n,right,right,right,right,right,right,817,16059,4798,89681,2734,817,2,legacy,1600892911945,6,1024,2,48000,-16,experiment,1,odd,2,936119,427015,699513,932857,58,933889,873423,58,162641,938140,934906,938968,58,938140,Sternberg,123,106424,136,yes,1024
91,91,780,780,black,no,experiment,legacy,legacy,legacy,0,uniform,1,right,136,136,136,136,0,0,0,136,136,0,0,136,136,136,0,0,136,136,0,Wed Sep 23 2020 22:27:07 GMT+0200 (CEST),The main experiment item,yes,/Users/ethan/Documents/GitHub/OpenSesame/Sternberg/experiment_files,no,mono,no,18,no,white,no,no,768,legacy,legacy,4,osweb,1.3.8,1,y,right,right,right,right,right,right,407,16059,4798,89681,2734,407,2,legacy,1600892911945,1,1024,2,48000,-16,experiment,1,odd,4,942236,427015,699513,932857,58,940004,938974,58,162641,944257,941024,944667,58,944257,Sternberg,124,106831,137,yes,1024
91,91,778,778,black,no,experiment,legacy,legacy,legacy,0,uniform,1,right,137,137,137,137,0,0,0,137,137,0,0,137,137,137,0,0,137,137,0,Wed Sep 23 2020 22:27:07 GMT+0200 (CEST),The main experiment item,yes,/Users/ethan/Documents/GitHub/OpenSesame/Sternberg/experiment_files,no,mono,no,18,no,white,no,no,768,legacy,legacy,8 3,osweb,1.3.8,2,y,right,right,right,right,right,right,532,16059,4798,89681,2734,532,2,legacy,1600892911945,2,1024,2,48000,-16,experiment,1,odd,3,947940,427015,699513,944673,58,945707,938974,58,162641,949958,946722,950501,58,949958,Sternberg,125,107363,138,yes,1024
0,0,2013,2013,black,no,practice,legacy,legacy,legacy,0,uniform,0,right,0,0,0,0,0,0,0,0,0,0,0,0,0,0,0,0,0,0,0,Wed Sep 23 2020 22:24:50 GMT+0200 (CEST),The main experiment item,yes,/Users/ethan/Documents/GitHub/OpenSesame/Sternberg/experiment_files,no,mono,no,18,no,white,no,no,768,legacy,legacy,4 3 1 7 9 8,osweb,1.3.8,1,y,None,,,right,,None,2013,,,62611,,2013,2,legacy,1600892703760,6,1024,2,48000,-16,experiment,0,even,4,64963,,,,78,62732,,77,,66983,63752,68997,78,66983,Sternberg,0,2013,1,yes,1024
0,0,1713,1713,black,no,practice,legacy,legacy,legacy,0,uniform,0,right,1,1,1,1,0,0,0,1,1,0,0,1,1,1,0,0,1,1,0,Wed Sep 23 2020 22:24:50 GMT+0200 (CEST),The main experiment item,yes,/Users/ethan/Documents/GitHub/OpenSesame/Sternberg/experiment_files,no,mono,no,18,no,white,no,no,768,legacy,legacy,1 7 9 8 5,osweb,1.3.8,4,y,left,,,right,,left,1412,,,62611,,1412,2,legacy,1600892703760,5,1024,2,48000,-16,experiment,0,even,8,72263,,,,78,70042,69004,77,,74283,71049,75695,78,74283,Sternberg,0,3425,2,yes,1024
0,0,1398,1398,black,no,practice,legacy,legacy,legacy,0,uniform,0,right,2,2,2,2,0,0,0,2,2,0,0,2,2,2,0,0,2,2,0,Wed Sep 23 2020 22:24:50 GMT+0200 (CEST),The main experiment item,yes,/Users/ethan/Documents/GitHub/OpenSesame/Sternberg/experiment_files,no,mono,no,18,no,white,no,no,768,legacy,legacy,2 9 4,osweb,1.3.8,3,y,left,,,right,,left,768,,,62611,,768,2,legacy,1600892703760,3,1024,2,48000,-16,experiment,0,even,4,78963,,,,78,76736,75703,77,,80982,77749,81762,78,80982,Sternberg,0,4193,3,yes,1024
0,0,1263,1263,black,no,practice,legacy,legacy,legacy,0,uniform,0,left,3,3,3,3,0,0,0,3,3,0,0,3,3,3,0,0,3,3,0,Wed Sep 23 2020 22:24:50 GMT+0200 (CEST),The main experiment item,yes,/Users/ethan/Documents/GitHub/OpenSesame/Sternberg/experiment_files,no,mono,no,18,no,white,no,no,768,legacy,legacy,9 6 7 4 5,osweb,1.3.8,0,n,right,,,right,,right,860,,,62611,,860,2,legacy,1600892703760,5,1024,2,48000,-16,experiment,0,even,3,85030,,,,78,82802,81768,77,,87050,83817,87912,78,87049,Sternberg,0,5053,4,yes,1024
0,0,1253,1253,black,no,practice,legacy,legacy,legacy,0,uniform,0,left,4,4,4,4,0,0,0,4,4,0,0,4,4,4,0,0,4,4,0,Wed Sep 23 2020 22:24:50 GMT+0200 (CEST),The main experiment item,yes,/Users/ethan/Documents/GitHub/OpenSesame/Sternberg/experiment_files,no,mono,no,18,no,white,no,no,768,legacy,legacy,5 7 8 4 1 2,osweb,1.3.8,0,n,right,,,right,,right,1213,,,62611,,1213,2,legacy,1600892703760,6,1024,2,48000,-16,experiment,0,even,6,91179,,,,78,88951,87919,77,,93199,89965,94428,78,93199,Sternberg,0,6266,5,yes,1024
0,0,1380,1380,black,no,practice,legacy,legacy,legacy,0,uniform,0,left,5,5,5,5,0,0,0,5,5,0,0,5,5,5,0,0,5,5,0,Wed Sep 23 2020 22:24:50 GMT+0200 (CEST),The main experiment item,yes,/Users/ethan/Documents/GitHub/OpenSesame/Sternberg/experiment_files,no,mono,no,18,no,white,no,no,768,legacy,legacy,2 1,osweb,1.3.8,0,n,None,,,right,,None,2014,,,62611,,2014,2,legacy,1600892703760,2,1024,2,48000,-16,experiment,0,even,5,97696,,,,78,95462,94432,77,,99715,96484,101729,78,99715,Sternberg,0,8280,6,yes,1024
100,100,1283,1283,black,no,practice,legacy,legacy,legacy,0,uniform,1,left,0,0,0,0,0,0,0,0,0,0,0,0,0,0,0,0,0,0,0,Wed Sep 23 2020 17:22:48 GMT+0200 (CEST),The main experiment item,yes,/Users/ethan/Documents/GitHub/OpenSesame/Sternberg/experiment_files,no,mono,no,18,no,white,no,no,768,legacy,legacy,9 6 7 4 5,osweb,1.3.8,0,n,left,,,right,,left,1283,,,67572,,1283,2,legacy,1600874575625,5,1024,2,48000,-16,experiment,0,even,3,69922,,,,70,67690,,70,,71928,68709,73222,70,71927,Sternberg,1,1283,1,yes,1024
100,100,1373,1373,black,no,practice,legacy,legacy,legacy,0,uniform,1,left,1,1,1,1,0,0,0,1,1,0,0,1,1,1,0,0,1,1,0,Wed Sep 23 2020 17:22:48 GMT+0200 (CEST),The main experiment item,yes,/Users/ethan/Documents/GitHub/OpenSesame/Sternberg/experiment_files,no,mono,no,18,no,white,no,no,768,legacy,legacy,3 1 9 4,osweb,1.3.8,0,n,left,,,right,,left,1462,,,67572,,1462,2,legacy,1600874575625,4,1024,2,48000,-16,experiment,0,even,6,76493,,,73229,70,74262,,70,,78514,75277,79992,70,78514,Sternberg,2,2745,2,yes,1024
100,100,1153,1153,black,no,practice,legacy,legacy,legacy,0,uniform,1,right,2,2,2,2,0,0,0,2,2,0,0,2,2,2,0,0,2,2,0,Wed Sep 23 2020 17:22:48 GMT+0200 (CEST),The main experiment item,yes,/Users/ethan/Documents/GitHub/OpenSesame/Sternberg/experiment_files,no,mono,no,18,no,white,no,no,768,legacy,legacy,2 9 4,osweb,1.3.8,3,y,right,,,right,,right,713,,,67572,,713,2,legacy,1600874575625,3,1024,2,48000,-16,experiment,0,even,4,83262,,,79998,70,81032,,70,,85282,82049,85996,70,85282,Sternberg,3,3458,3,yes,1024
100,100,1218,1218,black,no,practice,legacy,legacy,legacy,0,uniform,1,left,3,3,3,3,0,0,0,3,3,0,0,3,3,3,0,0,3,3,0,Wed Sep 23 2020 17:22:48 GMT+0200 (CEST),The main experiment item,yes,/Users/ethan/Documents/GitHub/OpenSesame/Sternberg/experiment_files,no,mono,no,18,no,white,no,no,768,legacy,legacy,5 7 8 4 1 2,osweb,1.3.8,0,n,left,,,right,,left,1414,,,67572,,1414,2,legacy,1600874575625,6,1024,2,48000,-16,experiment,0,even,6,89264,,,86002,70,87033,,70,,91270,88051,92699,70,91270,Sternberg,4,4872,4,yes,1024
100,100,1330,1330,black,no,practice,legacy,legacy,legacy,0,uniform,1,right,4,4,4,4,0,0,0,4,4,0,0,4,4,4,0,0,4,4,0,Wed Sep 23 2020 17:22:48 GMT+0200 (CEST),The main experiment item,yes,/Users/ethan/Documents/GitHub/OpenSesame/Sternberg/experiment_files,no,mono,no,18,no,white,no,no,768,legacy,legacy,4 8,osweb,1.3.8,1,y,right,,,right,,right,1776,,,67572,,1776,2,legacy,1600874575625,2,1024,2,48000,-16,experiment,0,even,4,95970,,,92704,70,93735,,70,,97990,94754,99768,70,97990,Sternberg,5,6648,5,yes,1024
100,100,1199,1199,black,no,practice,legacy,legacy,legacy,0,uniform,1,left,5,5,5,5,0,0,0,5,5,0,0,5,5,5,0,0,5,5,0,Wed Sep 23 2020 17:22:48 GMT+0200 (CEST),The main experiment item,yes,/Users/ethan/Documents/GitHub/OpenSesame/Sternberg/experiment_files,no,mono,no,18,no,white,no,no,768,legacy,legacy,4 1 5,osweb,1.3.8,0,n,left,,,right,,left,545,,,67572,,545,2,legacy,1600874575625,3,1024,2,48000,-16,experiment,0,even,2,103038,,,99773,70,100807,,70,,105058,101824,105619,70,105058,Sternberg,6,7193,6,yes,1024
86,86,1257,1257,black,no,practice,legacy,legacy,legacy,0,uniform,0,left,6,6,6,6,0,0,0,6,6,0,0,6,6,6,0,0,6,6,0,Wed Sep 23 2020 17:22:48 GMT+0200 (CEST),The main experiment item,yes,/Users/ethan/Documents/GitHub/OpenSesame/Sternberg/experiment_files,no,mono,no,18,no,white,no,no,768,legacy,legacy,2 1,osweb,1.3.8,0,n,right,,,right,,right,1609,,,67572,,1609,2,legacy,1600874575625,2,1024,2,48000,-16,experiment,0,even,5,108890,,,105625,70,106658,,70,,110896,107677,112507,70,110896,Sternberg,6,8802,7,yes,1024
88,88,1193,1193,black,no,practice,legacy,legacy,legacy,0,uniform,1,right,7,7,7,7,0,0,0,7,7,0,0,7,7,7,0,0,7,7,0,Wed Sep 23 2020 17:22:48 GMT+0200 (CEST),The main experiment item,yes,/Users/ethan/Documents/GitHub/OpenSesame/Sternberg/experiment_files,no,mono,no,18,no,white,no,no,768,legacy,legacy,6,osweb,1.3.8,1,y,right,,,right,,right,742,,,67572,,742,2,legacy,1600874575625,1,1024,2,48000,-16,experiment,0,even,6,115778,,,105625,70,113545,112512,70,,117798,114563,118543,70,117798,Sternberg,7,9544,8,yes,1024
89,89,1206,1206,black,no,practice,legacy,legacy,legacy,0,uniform,1,right,8,8,8,8,0,0,0,8,8,0,0,8,8,8,0,0,8,8,0,Wed Sep 23 2020 17:22:48 GMT+0200 (CEST),The main experiment item,yes,/Users/ethan/Documents/GitHub/OpenSesame/Sternberg/experiment_files,no,mono,no,18,no,white,no,no,768,legacy,legacy,1 7 9 8 5,osweb,1.3.8,4,y,right,,,right,,right,1311,,,67572,,1311,2,legacy,1600874575625,5,1024,2,48000,-16,experiment,0,even,8,121816,,,118548,70,119581,112512,70,,123836,120598,125164,70,123836,Sternberg,8,10855,9,yes,1024
90,90,1209,1209,black,no,practice,legacy,legacy,legacy,0,uniform,1,right,9,9,9,9,0,0,0,9,9,0,0,9,9,9,0,0,9,9,0,Wed Sep 23 2020 17:22:48 GMT+0200 (CEST),The main experiment item,yes,/Users/ethan/Documents/GitHub/OpenSesame/Sternberg/experiment_files,no,mono,no,18,no,white,no,no,768,legacy,legacy,4 3 1 7 9 8,osweb,1.3.8,1,y,right,,,right,,right,1234,,,67572,,1234,2,legacy,1600874575625,6,1024,2,48000,-16,experiment,0,even,4,128435,,,125169,70,126204,112512,70,,130455,127222,131703,70,130455,Sternberg,9,12089,10,yes,1024
91,91,1190,1190,black,no,practice,legacy,legacy,legacy,0,uniform,1,right,10,10,10,10,0,0,0,10,10,0,0,10,10,10,0,0,10,10,0,Wed Sep 23 2020 17:22:48 GMT+0200 (CEST),The main experiment item,yes,/Users/ethan/Documents/GitHub/OpenSesame/Sternberg/experiment_files,no,mono,no,18,no,white,no,no,768,legacy,legacy,1 5 2 9,osweb,1.3.8,2,y,right,,,right,,right,1005,,,67572,,1005,2,legacy,1600874575625,4,1024,2,48000,-16,experiment,0,even,5,134971,,,131707,70,132739,112512,70,,136975,133758,137989,70,136975,Sternberg,10,13094,11,yes,1024
92,92,1146,1146,black,no,practice,legacy,legacy,legacy,0,uniform,1,left,11,11,11,11,0,0,0,11,11,0,0,11,11,11,0,0,11,11,0,Wed Sep 23 2020 17:22:48 GMT+0200 (CEST),The main experiment item,yes,/Users/ethan/Documents/GitHub/OpenSesame/Sternberg/experiment_files,no,mono,no,18,no,white,no,no,768,legacy,legacy,5,osweb,1.3.8,0,n,left,,,right,,left,656,,,67572,,656,2,legacy,1600874575625,1,1024,2,48000,-16,experiment,0,even,3,141243,,,137993,70,139024,112512,70,,143262,140041,143925,70,143262,Sternberg,11,13750,12,yes,1024
92,92,1124,1124,black,no,experiment,legacy,legacy,legacy,0,uniform,1,right,12,12,12,12,0,0,0,12,12,0,0,12,12,12,0,0,12,12,0,Wed Sep 23 2020 17:22:48 GMT+0200 (CEST),The main experiment item,yes,/Users/ethan/Documents/GitHub/OpenSesame/Sternberg/experiment_files,no,mono,no,18,no,white,no,no,768,legacy,legacy,9 1 6 7 8,osweb,1.3.8,1,y,right,,,right,right,right,859,,,67572,9268,859,2,legacy,1600874575625,5,1024,2,48000,-16,experiment,0,even,9,156501,,,143928,70,154266,112512,70,144962,158520,155284,159382,70,158520,Sternberg,12,14609,13,yes,1024
93,93,1088,1088,black,no,experiment,legacy,legacy,legacy,0,uniform,1,left,13,13,13,13,0,0,0,13,13,0,0,13,13,13,0,0,13,13,0,Wed Sep 23 2020 17:22:48 GMT+0200 (CEST),The main experiment item,yes,/Users/ethan/Documents/GitHub/OpenSesame/Sternberg/experiment_files,no,mono,no,18,no,white,no,no,768,legacy,legacy,2 5 1 4,osweb,1.3.8,0,n,left,,,right,right,left,627,,,67572,9268,627,2,legacy,1600874575625,4,1024,2,48000,-16,experiment,0,even,6,162653,,,159386,70,160419,112512,70,144962,164672,161439,165301,70,164672,Sternberg,13,15236,14,yes,1024
93,93,1114,1114,black,no,experiment,legacy,legacy,legacy,0,uniform,1,right,14,14,14,14,0,0,0,14,14,0,0,14,14,14,0,0,14,14,0,Wed Sep 23 2020 17:22:48 GMT+0200 (CEST),The main experiment item,yes,/Users/ethan/Documents/GitHub/OpenSesame/Sternberg/experiment_files,no,mono,no,18,no,white,no,no,768,legacy,legacy,3 5 7 1,osweb,1.3.8,3,y,right,,,right,right,right,1477,,,67572,9268,1477,2,legacy,1600874575625,4,1024,2,48000,-16,experiment,0,even,7,168557,,,165305,70,166330,112512,70,144962,170577,167343,172058,70,170577,Sternberg,14,16713,15,yes,1024
94,94,1102,1102,black,no,experiment,legacy,legacy,legacy,0,uniform,1,right,15,15,15,15,0,0,0,15,15,0,0,15,15,15,0,0,15,15,0,Wed Sep 23 2020 17:22:48 GMT+0200 (CEST),The main experiment item,yes,/Users/ethan/Documents/GitHub/OpenSesame/Sternberg/experiment_files,no,mono,no,18,no,white,no,no,768,legacy,legacy,9 5 8 1,osweb,1.3.8,2,y,right,,,right,right,right,912,,,67572,9268,912,2,legacy,1600874575625,4,1024,2,48000,-16,experiment,0,even,5,175326,,,172061,70,173094,112512,70,144962,177347,174112,178260,70,177347,Sternberg,15,17625,16,yes,1024
94,94,1076,1076,black,no,experiment,legacy,legacy,legacy,0,uniform,1,left,16,16,16,16,0,0,0,16,16,0,0,16,16,16,0,0,16,16,0,Wed Sep 23 2020 17:22:48 GMT+0200 (CEST),The main experiment item,yes,/Users/ethan/Documents/GitHub/OpenSesame/Sternberg/experiment_files,no,mono,no,18,no,white,no,no,768,legacy,legacy,2 3 8 5 6 7,osweb,1.3.8,0,n,left,,,right,right,left,670,,,67572,9268,670,2,legacy,1600874575625,6,1024,2,48000,-16,experiment,0,even,1,181530,,,178263,70,179295,112512,70,144962,183549,180313,184230,70,183549,Sternberg,16,18295,17,yes,1024
94,94,1072,1072,black,no,experiment,legacy,legacy,legacy,0,uniform,1,right,17,17,17,17,0,0,0,17,17,0,0,17,17,17,0,0,17,17,0,Wed Sep 23 2020 17:22:48 GMT+0200 (CEST),The main experiment item,yes,/Users/ethan/Documents/GitHub/OpenSesame/Sternberg/experiment_files,no,mono,no,18,no,white,no,no,768,legacy,legacy,6 7 8 5,osweb,1.3.8,3,y,right,,,right,right,right,994,,,67572,9268,994,2,legacy,1600874575625,4,1024,2,48000,-16,experiment,0,even,8,187483,,,184234,70,185264,112512,70,144962,189502,186269,190498,70,189502,Sternberg,17,19289,18,yes,1024
95,95,1055,1055,black,no,experiment,legacy,legacy,legacy,0,uniform,1,left,18,18,18,18,0,0,0,18,18,0,0,18,18,18,0,0,18,18,0,Wed Sep 23 2020 17:22:48 GMT+0200 (CEST),The main experiment item,yes,/Users/ethan/Documents/GitHub/OpenSesame/Sternberg/experiment_files,no,mono,no,18,no,white,no,no,768,legacy,legacy,7 1 5 6 3,osweb,1.3.8,0,n,left,,,right,right,left,761,,,67572,9268,761,2,legacy,1600874575625,5,1024,2,48000,-16,experiment,0,even,8,193769,,,190501,70,191536,112512,70,144962,195788,192554,196553,70,195788,Sternberg,18,20050,19,yes,1024
95,95,1034,1034,black,no,experiment,legacy,legacy,legacy,0,uniform,1,left,19,19,19,19,0,0,0,19,19,0,0,19,19,19,0,0,19,19,0,Wed Sep 23 2020 17:22:48 GMT+0200 (CEST),The main experiment item,yes,/Users/ethan/Documents/GitHub/OpenSesame/Sternberg/experiment_files,no,mono,no,18,no,white,no,no,768,legacy,legacy,9,osweb,1.3.8,0,n,left,,,right,right,left,637,,,67572,9268,637,2,legacy,1600874575625,1,1024,2,48000,-16,experiment,0,even,6,199821,,,196556,70,197588,112512,70,144962,201826,198606,202473,70,201826,Sternberg,19,20687,20,yes,1024
95,95,1014,1014,black,no,experiment,legacy,legacy,legacy,0,uniform,1,left,20,20,20,20,0,0,0,20,20,0,0,20,20,20,0,0,20,20,0,Wed Sep 23 2020 17:22:48 GMT+0200 (CEST),The main experiment item,yes,/Users/ethan/Documents/GitHub/OpenSesame/Sternberg/experiment_files,no,mono,no,18,no,white,no,no,768,legacy,legacy,5 2,osweb,1.3.8,0,n,left,,,right,right,left,615,,,67572,9268,615,2,legacy,1600874575625,2,1024,2,48000,-16,experiment,0,even,7,205740,,,202477,70,203518,112512,70,144962,207745,204526,208373,70,207745,Sternberg,20,21302,21,yes,1024
95,95,1011,1011,black,no,experiment,legacy,legacy,legacy,0,uniform,1,left,21,21,21,21,0,0,0,21,21,0,0,21,21,21,0,0,21,21,0,Wed Sep 23 2020 17:22:48 GMT+0200 (CEST),The main experiment item,yes,/Users/ethan/Documents/GitHub/OpenSesame/Sternberg/experiment_files,no,mono,no,18,no,white,no,no,768,legacy,legacy,5 3 2 6 9 8,osweb,1.3.8,0,n,left,,,right,right,left,945,,,67572,9268,945,2,legacy,1600874575625,6,1024,2,48000,-16,experiment,0,even,4,211644,,,208377,70,209410,112512,70,144962,213664,210428,214610,70,213664,Sternberg,21,22247,22,yes,1024
96,96,1013,1013,black,no,experiment,legacy,legacy,legacy,0,uniform,1,left,22,22,22,22,0,0,0,22,22,0,0,22,22,22,0,0,22,22,0,Wed Sep 23 2020 17:22:48 GMT+0200 (CEST),The main experiment item,yes,/Users/ethan/Documents/GitHub/OpenSesame/Sternberg/experiment_files,no,mono,no,18,no,white,no,no,768,legacy,legacy,1,osweb,1.3.8,0,n,left,,,right,right,left,1062,,,67572,9268,1062,2,legacy,1600874575625,1,1024,2,48000,-16,experiment,0,even,7,217862,,,214614,70,215645,112512,70,144962,219866,216649,220929,70,219866,Sternberg,22,23309,23,yes,1024
96,96,998,998,black,no,experiment,legacy,legacy,legacy,0,uniform,1,left,23,23,23,23,0,0,0,23,23,0,0,23,23,23,0,0,23,23,0,Wed Sep 23 2020 17:22:48 GMT+0200 (CEST),The main experiment item,yes,/Users/ethan/Documents/GitHub/OpenSesame/Sternberg/experiment_files,no,mono,no,18,no,white,no,no,768,legacy,legacy,9 7 4 5 8,osweb,1.3.8,0,n,left,,,right,right,left,639,,,67572,9268,639,2,legacy,1600874575625,5,1024,2,48000,-16,experiment,0,even,6,224198,,,220933,70,221973,112512,70,144962,226203,222985,226850,70,226203,Sternberg,23,23948,24,yes,1024
96,96,982,982,black,no,experiment,legacy,legacy,legacy,0,uniform,1,right,24,24,24,24,0,0,0,24,24,0,0,24,24,24,0,0,24,24,0,Wed Sep 23 2020 17:22:48 GMT+0200 (CEST),The main experiment item,yes,/Users/ethan/Documents/GitHub/OpenSesame/Sternberg/experiment_files,no,mono,no,18,no,white,no,no,768,legacy,legacy,4,osweb,1.3.8,1,y,right,,,right,right,right,600,,,67572,9268,600,2,legacy,1600874575625,1,1024,2,48000,-16,experiment,0,even,4,230116,,,226855,70,227886,112512,70,144962,232123,228903,232735,70,232122,Sternberg,24,24548,25,yes,1024
96,96,974,974,black,no,experiment,legacy,legacy,legacy,0,uniform,1,right,25,25,25,25,0,0,0,25,25,0,0,25,25,25,0,0,25,25,0,Wed Sep 23 2020 17:22:48 GMT+0200 (CEST),The main experiment item,yes,/Users/ethan/Documents/GitHub/OpenSesame/Sternberg/experiment_files,no,mono,no,18,no,white,no,no,768,legacy,legacy,3 5 4 7,osweb,1.3.8,1,y,right,,,right,right,right,778,,,67572,9268,778,2,legacy,1600874575625,4,1024,2,48000,-16,experiment,0,even,3,236003,,,232739,70,233770,112512,70,144962,238009,234789,238789,70,238009,Sternberg,25,25326,26,yes,1024
96,96,967,967,black,no,experiment,legacy,legacy,legacy,0,uniform,1,left,26,26,26,26,0,0,0,26,26,0,0,26,26,26,0,0,26,26,0,Wed Sep 23 2020 17:22:48 GMT+0200 (CEST),The main experiment item,yes,/Users/ethan/Documents/GitHub/OpenSesame/Sternberg/experiment_files,no,mono,no,18,no,white,no,no,768,legacy,legacy,8 9,osweb,1.3.8,0,n,left,,,right,right,left,795,,,67572,9268,795,2,legacy,1600874575625,2,1024,2,48000,-16,experiment,0,even,5,242059,,,238793,70,239824,112512,70,144962,244078,240843,244874,70,244078,Sternberg,26,26121,27,yes,1024
96,96,955,955,black,no,experiment,legacy,legacy,legacy,0,uniform,1,left,27,27,27,27,0,0,0,27,27,0,0,27,27,27,0,0,27,27,0,Wed Sep 23 2020 17:22:48 GMT+0200 (CEST),The main experiment item,yes,/Users/ethan/Documents/GitHub/OpenSesame/Sternberg/experiment_files,no,mono,no,18,no,white,no,no,768,legacy,legacy,6 8 4,osweb,1.3.8,0,n,left,,,right,right,left,616,,,67572,9268,616,2,legacy,1600874575625,3,1024,2,48000,-16,experiment,0,even,1,248127,,,244877,70,245910,112512,70,144962,250131,246914,250760,70,250131,Sternberg,27,26737,28,yes,1024
97,97,951,951,black,no,experiment,legacy,legacy,legacy,0,uniform,1,right,28,28,28,28,0,0,0,28,28,0,0,28,28,28,0,0,28,28,0,Wed Sep 23 2020 17:22:48 GMT+0200 (CEST),The main experiment item,yes,/Users/ethan/Documents/GitHub/OpenSesame/Sternberg/experiment_files,no,mono,no,18,no,white,no,no,768,legacy,legacy,6 9 3 1,osweb,1.3.8,4,y,right,,,right,right,right,852,,,67572,9268,852,2,legacy,1600874575625,4,1024,2,48000,-16,experiment,0,even,1,254030,,,250764,70,251798,112512,70,144962,256050,252816,256914,70,256050,Sternberg,28,27589,29,yes,1024
97,97,940,940,black,no,experiment,legacy,legacy,legacy,0,uniform,1,right,29,29,29,29,0,0,0,29,29,0,0,29,29,29,0,0,29,29,0,Wed Sep 23 2020 17:22:48 GMT+0200 (CEST),The main experiment item,yes,/Users/ethan/Documents/GitHub/OpenSesame/Sternberg/experiment_files,no,mono,no,18,no,white,no,no,768,legacy,legacy,2 3,osweb,1.3.8,1,y,right,,,right,right,right,601,,,67572,9268,601,2,legacy,1600874575625,2,1024,2,48000,-16,experiment,0,even,2,260182,,,256918,70,257949,112512,70,144962,262187,258967,262800,70,262187,Sternberg,29,28190,30,yes,1024
97,97,944,944,black,no,experiment,legacy,legacy,legacy,0,uniform,1,left,30,30,30,30,0,0,0,30,30,0,0,30,30,30,0,0,30,30,0,Wed Sep 23 2020 17:22:48 GMT+0200 (CEST),The main experiment item,yes,/Users/ethan/Documents/GitHub/OpenSesame/Sternberg/experiment_files,no,mono,no,18,no,white,no,no,768,legacy,legacy,6 3 1 7 9 8,osweb,1.3.8,0,n,left,,,right,right,left,1059,,,67572,9268,1059,2,legacy,1600874575625,6,1024,2,48000,-16,experiment,0,even,4,266068,,,262804,70,263836,112512,70,144962,268072,264853,269135,70,268072,Sternberg,30,29249,31,yes,1024
97,97,967,967,black,no,experiment,legacy,legacy,legacy,0,uniform,1,left,31,31,31,31,0,0,0,31,31,0,0,31,31,31,0,0,31,31,0,Wed Sep 23 2020 17:22:48 GMT+0200 (CEST),The main experiment item,yes,/Users/ethan/Documents/GitHub/OpenSesame/Sternberg/experiment_files,no,mono,no,18,no,white,no,no,768,legacy,legacy,1 7 5 2 9,osweb,1.3.8,0,n,left,,,right,right,left,1707,,,67572,9268,1707,2,legacy,1600874575625,5,1024,2,48000,-16,experiment,0,even,3,272406,,,269139,70,270170,112512,70,144962,274426,271194,276138,70,274426,Sternberg,31,30956,32,yes,1024
97,97,970,970,black,no,experiment,legacy,legacy,legacy,0,uniform,1,left,32,32,32,32,0,0,0,32,32,0,0,32,32,32,0,0,32,32,0,Wed Sep 23 2020 17:22:48 GMT+0200 (CEST),The main experiment item,yes,/Users/ethan/Documents/GitHub/OpenSesame/Sternberg/experiment_files,no,mono,no,18,no,white,no,no,768,legacy,legacy,5 7 3,osweb,1.3.8,0,n,left,,,right,right,left,1065,,,67572,9268,1065,2,legacy,1600874575625,3,1024,2,48000,-16,experiment,0,even,9,279409,,,276143,70,277178,112512,70,144962,281414,278195,282493,70,281414,Sternberg,32,32021,33,yes,1024
97,97,975,975,black,no,experiment,legacy,legacy,legacy,0,uniform,1,right,33,33,33,33,0,0,0,33,33,0,0,33,33,33,0,0,33,33,0,Wed Sep 23 2020 17:22:48 GMT+0200 (CEST),The main experiment item,yes,/Users/ethan/Documents/GitHub/OpenSesame/Sternberg/experiment_files,no,mono,no,18,no,white,no,no,768,legacy,legacy,5 2 9 6 1 7,osweb,1.3.8,3,y,right,,,right,right,right,1127,,,67572,9268,1127,2,legacy,1600874575625,6,1024,2,48000,-16,experiment,0,even,9,285762,,,282497,70,283529,112512,70,144962,287766,284550,288896,70,287766,Sternberg,33,33148,34,yes,1024
