acc,accuracy,average_response_time,avg_rt,background,bidi,block,canvas_backend,clock_backend,color_backend,compensation,coordinates,correct,correct_response,count_ISI,count_correct_feedback,count_credits,count_expSequence,count_experiment,count_experimentLoop,count_fixation,count_incorrect_feedback,count_instructions1,count_instructions2,count_keyboard_response,count_memory_set,count_new_logger,count_osweb,count_practiceLoop,count_probe,count_thankYou,datetime,description,disable_garbage_collection,font_bold,font_family,font_italic,font_size,font_underline,foreground,form_clicks,fullscreen,height,keyboard_backend,mouse_backend,numberSet,opensesame_codename,opensesame_version,posInSet,present,response,response_instructions1,response_instructions2,response_keyboard_response,response_time,response_time_instructions1,response_time_instructions2,response_time_keyboard_response,round_decimals,sampler_backend,sessionid,setSize,sound_buf_size,sound_channels,sound_freq,sound_sample_size,start,subject_nr,subject_parity,target,time_ISI,time_correct_feedback,time_experimentLoop,time_fixation,time_incorrect_feedback,time_instructions1,time_instructions2,time_keyboard_response,time_memory_set,time_new_logger,time_practiceLoop,time_probe,title,total_correct,total_response_time,total_responses,uniform_coordinates,width
100,100,934,934,black,no,practice,legacy,legacy,legacy,0,uniform,1,right,0,0,0,0,0,0,0,0,0,0,0,0,0,0,0,0,0,Mon Sep 14 2020 11:48:38 GMT+0200 (Central European Summer Time),The main experiment item,yes,no,mono,no,18,no,white,no,no,768,legacy,legacy,2 1,osweb,1.3.8,0,n,right,left,,right,934,3479,,934,2,legacy,1600076979905,2,1024,2,48000,-16,experiment,1,odd,5,5752,,29,3530,,29,,7770,4537,8719,29,7770,Sternberg,1,934,1,yes,1024
100,100,1117,1117,black,no,practice,legacy,legacy,legacy,0,uniform,1,left,1,1,0,1,0,0,1,1,0,0,1,1,1,0,0,1,0,Mon Sep 14 2020 11:48:38 GMT+0200 (Central European Summer Time),The main experiment item,yes,no,mono,no,18,no,white,no,no,768,legacy,legacy,4 8,osweb,1.3.8,1,y,left,left,,left,1300,3479,,1300,2,legacy,1600076979905,2,1024,2,48000,-16,experiment,1,odd,4,11969,8722,29,9742,,29,,13986,10754,15302,29,13986,Sternberg,2,2234,2,yes,1024
100,100,1151,1151,black,no,practice,legacy,legacy,legacy,0,uniform,1,left,2,2,0,2,0,0,2,2,0,0,2,2,2,0,0,2,0,Mon Sep 14 2020 11:48:38 GMT+0200 (Central European Summer Time),The main experiment item,yes,no,mono,no,18,no,white,no,no,768,legacy,legacy,2 9 4,osweb,1.3.8,3,y,left,left,,left,1220,3479,,1220,2,legacy,1600076979905,3,1024,2,48000,-16,experiment,1,odd,4,18553,15303,29,16326,,29,,20569,17336,21801,29,20569,Sternberg,3,3454,3,yes,1024
100,100,1149,1149,black,no,practice,legacy,legacy,legacy,0,uniform,1,left,3,3,0,3,0,0,3,3,0,0,3,3,3,0,0,3,0,Mon Sep 14 2020 11:48:38 GMT+0200 (Central European Summer Time),The main experiment item,yes,no,mono,no,18,no,white,no,no,768,legacy,legacy,1 7 9 8 5,osweb,1.3.8,4,y,left,left,,left,1143,3479,,1143,2,legacy,1600076979905,5,1024,2,48000,-16,experiment,1,odd,8,25052,21803,29,22825,,29,,27069,23836,28218,29,27069,Sternberg,4,4597,4,yes,1024
100,100,1128,1128,black,no,practice,legacy,legacy,legacy,0,uniform,1,right,4,4,0,4,0,0,4,4,0,0,4,4,4,0,0,4,0,Mon Sep 14 2020 11:48:38 GMT+0200 (Central European Summer Time),The main experiment item,yes,no,mono,no,18,no,white,no,no,768,legacy,legacy,9 6 7 4 5,osweb,1.3.8,0,n,right,left,,right,1042,3479,,1042,2,legacy,1600076979905,5,1024,2,48000,-16,experiment,1,odd,3,31468,28219,29,29240,,29,,33470,30252,34517,29,33470,Sternberg,5,5639,5,yes,1024
100,100,1150,1150,black,no,practice,legacy,legacy,legacy,0,uniform,1,left,5,5,0,5,0,0,5,5,0,0,5,5,5,0,0,5,0,Mon Sep 14 2020 11:48:38 GMT+0200 (Central European Summer Time),The main experiment item,yes,no,mono,no,18,no,white,no,no,768,legacy,legacy,1 5 2 9,osweb,1.3.8,2,y,left,left,,left,1263,3479,,1263,2,legacy,1600076979905,4,1024,2,48000,-16,experiment,1,odd,5,37768,34519,29,35541,,29,,39785,36552,41051,29,39785,Sternberg,6,6902,6,yes,1024
100,100,1119,1119,black,no,practice,legacy,legacy,legacy,0,uniform,1,left,6,6,0,6,0,0,6,6,0,0,6,6,6,0,0,6,0,Mon Sep 14 2020 11:48:38 GMT+0200 (Central European Summer Time),The main experiment item,yes,no,mono,no,18,no,white,no,no,768,legacy,legacy,6,osweb,1.3.8,1,y,left,left,,left,929,3479,,929,2,legacy,1600076979905,1,1024,2,48000,-16,experiment,1,odd,6,44302,41052,29,42075,,29,,46318,43085,47251,29,46318,Sternberg,7,7831,7,yes,1024
100,100,1074,1074,black,no,practice,legacy,legacy,legacy,0,uniform,1,right,7,7,0,7,0,0,7,7,0,0,7,7,7,0,0,7,0,Mon Sep 14 2020 11:48:38 GMT+0200 (Central European Summer Time),The main experiment item,yes,no,mono,no,18,no,white,no,no,768,legacy,legacy,4 1 5,osweb,1.3.8,0,n,right,left,,right,758,3479,,758,2,legacy,1600076979905,3,1024,2,48000,-16,experiment,1,odd,2,50501,47252,29,48274,,29,,52519,49286,53285,29,52519,Sternberg,8,8589,8,yes,1024
100,100,1073,1073,black,no,practice,legacy,legacy,legacy,0,uniform,1,right,8,8,0,8,0,0,8,8,0,0,8,8,8,0,0,8,0,Mon Sep 14 2020 11:48:38 GMT+0200 (Central European Summer Time),The main experiment item,yes,no,mono,no,18,no,white,no,no,768,legacy,legacy,5 7 8 4 1 2,osweb,1.3.8,0,n,right,left,,right,1065,3479,,1065,2,legacy,1600076979905,6,1024,2,48000,-16,experiment,1,odd,6,56533,53286,29,54306,,29,,58535,55318,59600,29,58535,Sternberg,9,9654,9,yes,1024
100,100,1066,1066,black,no,practice,legacy,legacy,legacy,0,uniform,1,right,9,9,0,9,0,0,9,9,0,0,9,9,9,0,0,9,0,Mon Sep 14 2020 11:48:38 GMT+0200 (Central European Summer Time),The main experiment item,yes,no,mono,no,18,no,white,no,no,768,legacy,legacy,5,osweb,1.3.8,0,n,right,left,,right,1010,3479,,1010,2,legacy,1600076979905,1,1024,2,48000,-16,experiment,1,odd,3,62852,59602,29,60622,,29,,64868,61636,65884,29,64868,Sternberg,10,10664,10,yes,1024
100,100,1088,1088,black,no,practice,legacy,legacy,legacy,0,uniform,1,right,10,10,0,10,0,0,10,10,0,0,10,10,10,0,0,10,0,Mon Sep 14 2020 11:48:38 GMT+0200 (Central European Summer Time),The main experiment item,yes,no,mono,no,18,no,white,no,no,768,legacy,legacy,3 1 9 4,osweb,1.3.8,0,n,right,left,,right,1308,3479,,1308,2,legacy,1600076979905,4,1024,2,48000,-16,experiment,1,odd,6,69134,65886,29,66907,,29,,71152,67919,72467,29,71152,Sternberg,11,11972,11,yes,1024
92,92,1166,1166,black,no,practice,legacy,legacy,legacy,0,uniform,0,left,11,11,0,11,0,0,11,11,0,0,11,11,11,0,0,11,0,Mon Sep 14 2020 11:48:38 GMT+0200 (Central European Summer Time),The main experiment item,yes,no,mono,no,18,no,white,no,no,768,legacy,legacy,4 3 1 7 9 8,osweb,1.3.8,1,y,None,left,,None,2016,3479,,2016,2,legacy,1600076979905,6,1024,2,48000,-16,experiment,1,odd,4,75717,72468,29,73490,,29,,77718,74502,79734,29,77718,Sternberg,11,13988,12,yes,1024
85,85,1126,1126,black,no,experiment,legacy,legacy,legacy,0,uniform,0,left,12,12,0,12,0,0,12,12,0,0,12,12,12,0,0,12,0,Mon Sep 14 2020 11:48:38 GMT+0200 (Central European Summer Time),The main experiment item,yes,no,mono,no,18,no,white,no,no,768,legacy,legacy,8 5 1 3 9,osweb,1.3.8,4,y,right,left,left,right,656,3479,10921,656,2,legacy,1600076979905,5,1024,2,48000,-16,experiment,1,odd,3,93918,72468,29,91689,79735,29,80753,95934,92702,96600,29,95934,Sternberg,11,14644,13,yes,1024
79,79,1190,1190,black,no,experiment,legacy,legacy,legacy,0,uniform,0,left,13,13,0,13,0,0,13,13,0,0,13,13,13,0,0,13,0,Mon Sep 14 2020 11:48:38 GMT+0200 (Central European Summer Time),The main experiment item,yes,no,mono,no,18,no,white,no,no,768,legacy,legacy,5 2 6,osweb,1.3.8,2,y,None,left,left,None,2015,3479,10921,2015,2,legacy,1600076979905,3,1024,2,48000,-16,experiment,1,odd,2,101918,72468,29,97621,96602,29,80753,103934,100701,105949,29,103934,Sternberg,11,16659,14,yes,1024
80,80,1181,1181,black,no,experiment,legacy,legacy,legacy,0,uniform,1,left,14,14,0,14,0,0,14,14,0,0,14,14,14,0,0,14,0,Mon Sep 14 2020 11:48:38 GMT+0200 (Central European Summer Time),The main experiment item,yes,no,mono,no,18,no,white,no,no,768,legacy,legacy,7 1 3,osweb,1.3.8,2,y,left,left,left,left,1057,3479,10921,1057,2,legacy,1600076979905,3,1024,2,48000,-16,experiment,1,odd,1,109200,72468,29,106973,105952,29,80753,111217,107985,112283,29,111217,Sternberg,12,17716,15,yes,1024
81,81,1171,1171,black,no,experiment,legacy,legacy,legacy,0,uniform,1,right,15,15,0,15,0,0,15,15,0,0,15,15,15,0,0,15,0,Mon Sep 14 2020 11:48:38 GMT+0200 (Central European Summer Time),The main experiment item,yes,no,mono,no,18,no,white,no,no,768,legacy,legacy,2 5 1 4,osweb,1.3.8,0,n,right,left,left,right,1012,3479,10921,1012,2,legacy,1600076979905,4,1024,2,48000,-16,experiment,1,odd,6,115534,112284,29,113306,105952,29,80753,117550,114317,118567,29,117550,Sternberg,13,18728,16,yes,1024
76,76,1187,1187,black,no,experiment,legacy,legacy,legacy,0,uniform,0,left,16,16,0,16,0,0,16,16,0,0,16,16,16,0,0,16,0,Mon Sep 14 2020 11:48:38 GMT+0200 (Central European Summer Time),The main experiment item,yes,no,mono,no,18,no,white,no,no,768,legacy,legacy,6 8 9 3 4 9,osweb,1.3.8,5,y,right,left,left,right,1454,3479,10921,1454,2,legacy,1600076979905,6,1024,2,48000,-16,experiment,1,odd,4,121817,118568,29,119589,105952,29,80753,123835,120601,125300,29,123835,Sternberg,13,20182,17,yes,1024
78,78,1211,1211,black,no,experiment,legacy,legacy,legacy,0,uniform,1,right,17,17,0,17,0,0,17,17,0,0,17,17,17,0,0,17,0,Mon Sep 14 2020 11:48:38 GMT+0200 (Central European Summer Time),The main experiment item,yes,no,mono,no,18,no,white,no,no,768,legacy,legacy,9 8 2 7 4,osweb,1.3.8,0,n,right,left,left,right,1608,3479,10921,1608,2,legacy,1600076979905,5,1024,2,48000,-16,experiment,1,odd,5,128550,118568,29,126323,125301,29,80753,130567,127334,132184,29,130567,Sternberg,14,21790,18,yes,1024
74,74,1203,1203,black,no,experiment,legacy,legacy,legacy,0,uniform,0,left,18,18,0,18,0,0,18,18,0,0,18,18,18,0,0,18,0,Mon Sep 14 2020 11:48:38 GMT+0200 (Central European Summer Time),The main experiment item,yes,no,mono,no,18,no,white,no,no,768,legacy,legacy,8 5 4 7 3 1,osweb,1.3.8,2,y,right,left,left,right,1069,3479,10921,1069,2,legacy,1600076979905,6,1024,2,48000,-16,experiment,1,odd,5,135432,132185,29,133205,125301,29,80753,137451,134217,138533,29,137451,Sternberg,14,22859,19,yes,1024
75,75,1197,1197,black,no,experiment,legacy,legacy,legacy,0,uniform,1,right,19,19,0,19,0,0,19,19,0,0,19,19,19,0,0,19,0,Mon Sep 14 2020 11:48:38 GMT+0200 (Central European Summer Time),The main experiment item,yes,no,mono,no,18,no,white,no,no,768,legacy,legacy,3 4 2,osweb,1.3.8,0,n,right,left,left,right,1086,3479,10921,1086,2,legacy,1600076979905,3,1024,2,48000,-16,experiment,1,odd,5,141784,132185,29,139555,138534,29,80753,143801,140567,144899,29,143801,Sternberg,15,23945,20,yes,1024
76,76,1190,1190,black,no,experiment,legacy,legacy,legacy,0,uniform,1,right,20,20,0,20,0,0,20,20,0,0,20,20,20,0,0,20,0,Mon Sep 14 2020 11:48:38 GMT+0200 (Central European Summer Time),The main experiment item,yes,no,mono,no,18,no,white,no,no,768,legacy,legacy,2 8 9 4 1,osweb,1.3.8,0,n,right,left,left,right,1043,3479,10921,1043,2,legacy,1600076979905,5,1024,2,48000,-16,experiment,1,odd,5,148150,144900,29,145921,138534,29,80753,150166,146934,151216,29,150166,Sternberg,16,24988,21,yes,1024
77,77,1173,1173,black,no,experiment,legacy,legacy,legacy,0,uniform,1,right,21,21,0,21,0,0,21,21,0,0,21,21,21,0,0,21,0,Mon Sep 14 2020 11:48:38 GMT+0200 (Central European Summer Time),The main experiment item,yes,no,mono,no,18,no,white,no,no,768,legacy,legacy,6 9 5,osweb,1.3.8,0,n,right,left,left,right,811,3479,10921,811,2,legacy,1600076979905,3,1024,2,48000,-16,experiment,1,odd,8,154467,151217,29,152237,138534,29,80753,156484,153250,157298,29,156484,Sternberg,17,25799,22,yes,1024
74,74,1161,1161,black,no,experiment,legacy,legacy,legacy,0,uniform,0,left,22,22,0,22,0,0,22,22,0,0,22,22,22,0,0,22,0,Mon Sep 14 2020 11:48:38 GMT+0200 (Central European Summer Time),The main experiment item,yes,no,mono,no,18,no,white,no,no,768,legacy,legacy,4,osweb,1.3.8,1,y,right,left,left,right,894,3479,10921,894,2,legacy,1600076979905,1,1024,2,48000,-16,experiment,1,odd,4,160550,157299,29,158321,138534,29,80753,162566,159333,163465,29,162566,Sternberg,17,26693,23,yes,1024
71,71,1196,1196,black,no,experiment,legacy,legacy,legacy,0,uniform,0,right,23,23,0,23,0,0,23,23,0,0,23,23,23,0,0,23,0,Mon Sep 14 2020 11:48:38 GMT+0200 (Central European Summer Time),The main experiment item,yes,no,mono,no,18,no,white,no,no,768,legacy,legacy,8 4 3 9,osweb,1.3.8,0,n,None,left,left,None,2016,3479,10921,2016,2,legacy,1600076979905,4,1024,2,48000,-16,experiment,1,odd,5,166715,157299,29,164486,163466,29,80753,168733,165500,170749,29,168733,Sternberg,17,28709,24,yes,1024
68,68,1229,1229,black,no,experiment,legacy,legacy,legacy,0,uniform,0,right,24,24,0,24,0,0,24,24,0,0,24,24,24,0,0,24,0,Mon Sep 14 2020 11:48:38 GMT+0200 (Central European Summer Time),The main experiment item,yes,no,mono,no,18,no,white,no,no,768,legacy,legacy,7 3 2 8,osweb,1.3.8,0,n,None,left,left,None,2016,3479,10921,2016,2,legacy,1600076979905,4,1024,2,48000,-16,experiment,1,odd,4,174001,157299,29,171770,170751,29,80753,176016,172782,178033,29,176016,Sternberg,17,30725,25,yes,1024
69,69,1243,1243,black,no,experiment,legacy,legacy,legacy,0,uniform,1,right,25,25,0,25,0,0,25,25,0,0,25,25,25,0,0,25,0,Mon Sep 14 2020 11:48:38 GMT+0200 (Central European Summer Time),The main experiment item,yes,no,mono,no,18,no,white,no,no,768,legacy,legacy,6 9 7 3 8 2,osweb,1.3.8,0,n,right,left,left,right,1583,3479,10921,1583,2,legacy,1600076979905,6,1024,2,48000,-16,experiment,1,odd,5,181283,157299,29,179053,178034,29,80753,183298,180066,184881,29,183298,Sternberg,18,32308,26,yes,1024
70,70,1225,1225,black,no,experiment,legacy,legacy,legacy,0,uniform,1,right,26,26,0,26,0,0,26,26,0,0,26,26,26,0,0,26,0,Mon Sep 14 2020 11:48:38 GMT+0200 (Central European Summer Time),The main experiment item,yes,no,mono,no,18,no,white,no,no,768,legacy,legacy,2 6 4 3 9,osweb,1.3.8,0,n,right,left,left,right,778,3479,10921,778,2,legacy,1600076979905,5,1024,2,48000,-16,experiment,1,odd,1,188116,184882,29,185887,178034,29,80753,190133,186900,190915,29,190133,Sternberg,19,33086,27,yes,1024
71,71,1213,1213,black,no,experiment,legacy,legacy,legacy,0,uniform,1,right,27,27,0,27,0,0,27,27,0,0,27,27,27,0,0,27,0,Mon Sep 14 2020 11:48:38 GMT+0200 (Central European Summer Time),The main experiment item,yes,no,mono,no,18,no,white,no,no,768,legacy,legacy,6 9 4 5 2,osweb,1.3.8,0,n,right,left,left,right,871,3479,10921,871,2,legacy,1600076979905,5,1024,2,48000,-16,experiment,1,odd,1,194165,190915,29,191937,178034,29,80753,196182,192950,197065,29,196182,Sternberg,20,33957,28,yes,1024
69,69,1208,1208,black,no,experiment,legacy,legacy,legacy,0,uniform,0,left,28,28,0,28,0,0,28,28,0,0,28,28,28,0,0,28,0,Mon Sep 14 2020 11:48:38 GMT+0200 (Central European Summer Time),The main experiment item,yes,no,mono,no,18,no,white,no,no,768,legacy,legacy,4 6 5 8,osweb,1.3.8,1,y,right,left,left,right,1089,3479,10921,1089,2,legacy,1600076979905,4,1024,2,48000,-16,experiment,1,odd,4,200315,197066,29,198086,178034,29,80753,202332,199100,203431,29,202332,Sternberg,20,35046,29,yes,1024
70,70,1216,1216,black,no,experiment,legacy,legacy,legacy,0,uniform,1,left,29,29,0,29,0,0,29,29,0,0,29,29,29,0,0,29,0,Mon Sep 14 2020 11:48:38 GMT+0200 (Central European Summer Time),The main experiment item,yes,no,mono,no,18,no,white,no,no,768,legacy,legacy,3 5 9 6 2 4,osweb,1.3.8,1,y,left,left,left,left,1448,3479,10921,1448,2,legacy,1600076979905,6,1024,2,48000,-16,experiment,1,odd,3,206682,197066,29,204453,203432,29,80753,208700,205465,210165,29,208700,Sternberg,21,36494,30,yes,1024
71,71,1201,1201,black,no,experiment,legacy,legacy,legacy,0,uniform,1,left,30,30,0,30,0,0,30,30,0,0,30,30,30,0,0,30,0,Mon Sep 14 2020 11:48:38 GMT+0200 (Central European Summer Time),The main experiment item,yes,no,mono,no,18,no,white,no,no,768,legacy,legacy,6 5,osweb,1.3.8,2,y,left,left,left,left,746,3479,10921,746,2,legacy,1600076979905,2,1024,2,48000,-16,experiment,1,odd,5,213415,210166,29,211186,203432,29,80753,215433,212198,216181,29,215433,Sternberg,22,37240,31,yes,1024
72,72,1195,1195,black,no,experiment,legacy,legacy,legacy,0,uniform,1,left,31,31,0,31,0,0,31,31,0,0,31,31,31,0,0,31,0,Mon Sep 14 2020 11:48:38 GMT+0200 (Central European Summer Time),The main experiment item,yes,no,mono,no,18,no,white,no,no,768,legacy,legacy,4 1 8 7 5,osweb,1.3.8,3,y,left,left,left,left,1007,3479,10921,1007,2,legacy,1600076979905,5,1024,2,48000,-16,experiment,1,odd,8,219432,216182,29,217203,203432,29,80753,221449,218216,222464,29,221449,Sternberg,23,38247,32,yes,1024
73,73,1187,1187,black,no,experiment,legacy,legacy,legacy,0,uniform,1,right,32,32,0,32,0,0,32,32,0,0,32,32,32,0,0,32,0,Mon Sep 14 2020 11:48:38 GMT+0200 (Central European Summer Time),The main experiment item,yes,no,mono,no,18,no,white,no,no,768,legacy,legacy,2 3 8 5 6 7,osweb,1.3.8,0,n,right,left,left,right,911,3479,10921,911,2,legacy,1600076979905,6,1024,2,48000,-16,experiment,1,odd,1,225715,222465,29,223485,203432,29,80753,227732,224499,228648,29,227732,Sternberg,24,39158,33,yes,1024
74,74,1193,1193,black,no,experiment,legacy,legacy,legacy,0,uniform,1,right,33,33,0,33,0,0,33,33,0,0,33,33,33,0,0,33,0,Mon Sep 14 2020 11:48:38 GMT+0200 (Central European Summer Time),The main experiment item,yes,no,mono,no,18,no,white,no,no,768,legacy,legacy,1 7 5 2 9,osweb,1.3.8,0,n,right,left,left,right,1411,3479,10921,1411,2,legacy,1600076979905,5,1024,2,48000,-16,experiment,1,odd,3,231899,228649,29,229669,203432,29,80753,233916,230682,235331,29,233916,Sternberg,25,40569,34,yes,1024
71,71,1197,1197,black,no,experiment,legacy,legacy,legacy,0,uniform,0,right,34,34,0,34,0,0,34,34,0,0,34,34,34,0,0,34,0,Mon Sep 14 2020 11:48:38 GMT+0200 (Central European Summer Time),The main experiment item,yes,no,mono,no,18,no,white,no,no,768,legacy,legacy,3 4 9 6 7 8,osweb,1.3.8,0,n,left,left,left,left,1343,3479,10921,1343,2,legacy,1600076979905,6,1024,2,48000,-16,experiment,1,odd,2,238582,235332,29,236353,203432,29,80753,240598,237366,241946,29,240598,Sternberg,25,41912,35,yes,1024
72,72,1208,1208,black,no,experiment,legacy,legacy,legacy,0,uniform,1,left,35,35,0,35,0,0,35,35,0,0,35,35,35,0,0,35,0,Mon Sep 14 2020 11:48:38 GMT+0200 (Central European Summer Time),The main experiment item,yes,no,mono,no,18,no,white,no,no,768,legacy,legacy,2 3 7 4,osweb,1.3.8,1,y,left,left,left,left,1588,3479,10921,1588,2,legacy,1600076979905,4,1024,2,48000,-16,experiment,1,odd,2,245197,235332,29,242968,241948,29,80753,247215,243982,248813,29,247215,Sternberg,26,43500,36,yes,1024
73,73,1206,1206,black,no,experiment,legacy,legacy,legacy,0,uniform,1,right,36,36,0,36,0,0,36,36,0,0,36,36,36,0,0,36,0,Mon Sep 14 2020 11:48:38 GMT+0200 (Central European Summer Time),The main experiment item,yes,no,mono,no,18,no,white,no,no,768,legacy,legacy,1 8 7,osweb,1.3.8,0,n,right,left,left,right,1114,3479,10921,1114,2,legacy,1600076979905,3,1024,2,48000,-16,experiment,1,odd,4,252064,248815,29,249836,241948,29,80753,254080,250849,255197,29,254080,Sternberg,27,44614,37,yes,1024
71,71,1203,1203,black,no,experiment,legacy,legacy,legacy,0,uniform,0,left,37,37,0,37,0,0,37,37,0,0,37,37,37,0,0,37,0,Mon Sep 14 2020 11:48:38 GMT+0200 (Central European Summer Time),The main experiment item,yes,no,mono,no,18,no,white,no,no,768,legacy,legacy,8 9 6 1,osweb,1.3.8,2,y,right,left,left,right,1089,3479,10921,1089,2,legacy,1600076979905,4,1024,2,48000,-16,experiment,1,odd,9,258432,255197,29,256202,241948,29,80753,260449,257214,261547,29,260449,Sternberg,27,45703,38,yes,1024
72,72,1204,1204,black,no,experiment,legacy,legacy,legacy,0,uniform,1,left,38,38,0,38,0,0,38,38,0,0,38,38,38,0,0,38,0,Mon Sep 14 2020 11:48:38 GMT+0200 (Central European Summer Time),The main experiment item,yes,no,mono,no,18,no,white,no,no,768,legacy,legacy,9 1 7 2,osweb,1.3.8,2,y,left,left,left,left,1260,3479,10921,1260,2,legacy,1600076979905,4,1024,2,48000,-16,experiment,1,odd,1,264798,255197,29,262569,261547,29,80753,266815,263582,268079,29,266815,Sternberg,28,46963,39,yes,1024
73,73,1204,1204,black,no,experiment,legacy,legacy,legacy,0,uniform,1,right,39,39,0,39,0,0,39,39,0,0,39,39,39,0,0,39,0,Mon Sep 14 2020 11:48:38 GMT+0200 (Central European Summer Time),The main experiment item,yes,no,mono,no,18,no,white,no,no,768,legacy,legacy,1 7 5 2,osweb,1.3.8,0,n,right,left,left,right,1190,3479,10921,1190,2,legacy,1600076979905,4,1024,2,48000,-16,experiment,1,odd,3,271315,268081,29,269102,261547,29,80753,273331,270113,274531,29,273331,Sternberg,29,48153,40,yes,1024
71,71,1196,1196,black,no,experiment,legacy,legacy,legacy,0,uniform,0,right,40,40,0,40,0,0,40,40,0,0,40,40,40,0,0,40,0,Mon Sep 14 2020 11:48:38 GMT+0200 (Central European Summer Time),The main experiment item,yes,no,mono,no,18,no,white,no,no,768,legacy,legacy,4 2 6 9,osweb,1.3.8,0,n,left,left,left,left,878,3479,10921,878,2,legacy,1600076979905,4,1024,2,48000,-16,experiment,1,odd,7,277781,274532,29,275552,261547,29,80753,279797,276563,280680,29,279797,Sternberg,29,49031,41,yes,1024
71,71,1190,1190,black,no,experiment,legacy,legacy,legacy,0,uniform,1,right,41,41,0,41,0,0,41,41,0,0,41,41,41,0,0,41,0,Mon Sep 14 2020 11:48:38 GMT+0200 (Central European Summer Time),The main experiment item,yes,no,mono,no,18,no,white,no,no,768,legacy,legacy,5 7 3,osweb,1.3.8,0,n,right,left,left,right,965,3479,10921,965,2,legacy,1600076979905,3,1024,2,48000,-16,experiment,1,odd,9,283914,274532,29,281700,280681,29,80753,285931,282713,286914,29,285931,Sternberg,30,49996,42,yes,1024
72,72,1189,1189,black,no,experiment,legacy,legacy,legacy,0,uniform,1,right,42,42,0,42,0,0,42,42,0,0,42,42,42,0,0,42,0,Mon Sep 14 2020 11:48:38 GMT+0200 (Central European Summer Time),The main experiment item,yes,no,mono,no,18,no,white,no,no,768,legacy,legacy,2 8 6 3 1,osweb,1.3.8,0,n,right,left,left,right,1139,3479,10921,1139,2,legacy,1600076979905,5,1024,2,48000,-16,experiment,1,odd,7,290163,286915,29,287937,280681,29,80753,292181,288947,293331,29,292181,Sternberg,31,51135,43,yes,1024
73,73,1190,1190,black,no,experiment,legacy,legacy,legacy,0,uniform,1,left,43,43,0,43,0,0,43,43,0,0,43,43,43,0,0,43,0,Mon Sep 14 2020 11:48:38 GMT+0200 (Central European Summer Time),The main experiment item,yes,no,mono,no,18,no,white,no,no,768,legacy,legacy,3 4 9 6 2 9,osweb,1.3.8,5,y,left,left,left,left,1214,3479,10921,1214,2,legacy,1600076979905,6,1024,2,48000,-16,experiment,1,odd,2,296580,293332,29,294351,280681,29,80753,298598,295363,299812,29,298598,Sternberg,32,52349,44,yes,1024
73,73,1199,1199,black,no,experiment,legacy,legacy,legacy,0,uniform,1,right,44,44,0,44,0,0,44,44,0,0,44,44,44,0,0,44,0,Mon Sep 14 2020 11:48:38 GMT+0200 (Central European Summer Time),The main experiment item,yes,no,mono,no,18,no,white,no,no,768,legacy,legacy,1 6 4,osweb,1.3.8,0,n,right,left,left,right,1610,3479,10921,1610,2,legacy,1600076979905,3,1024,2,48000,-16,experiment,1,odd,7,303046,299813,29,300819,280681,29,80753,305064,301830,306680,29,305064,Sternberg,33,53959,45,yes,1024
74,74,1212,1212,black,no,experiment,legacy,legacy,legacy,0,uniform,1,right,45,45,0,45,0,0,45,45,0,0,45,45,45,0,0,45,0,Mon Sep 14 2020 11:48:38 GMT+0200 (Central European Summer Time),The main experiment item,yes,no,mono,no,18,no,white,no,no,768,legacy,legacy,6 9 4 5 3 2,osweb,1.3.8,0,n,right,left,left,right,1793,3479,10921,1793,2,legacy,1600076979905,6,1024,2,48000,-16,experiment,1,odd,8,309931,306681,29,307701,280681,29,80753,311947,308713,313747,29,311947,Sternberg,34,55752,46,yes,1024
72,72,1216,1216,black,no,experiment,legacy,legacy,legacy,0,uniform,0,right,46,46,0,46,0,0,46,46,0,0,46,46,46,0,0,46,0,Mon Sep 14 2020 11:48:38 GMT+0200 (Central European Summer Time),The main experiment item,yes,no,mono,no,18,no,white,no,no,768,legacy,legacy,8 5 4 2 9 6,osweb,1.3.8,0,n,left,left,left,left,1379,3479,10921,1379,2,legacy,1600076979905,6,1024,2,48000,-16,experiment,1,odd,3,316996,313748,29,314768,280681,29,80753,318998,315779,320378,29,318998,Sternberg,34,57131,47,yes,1024
73,73,1208,1208,black,no,experiment,legacy,legacy,legacy,0,uniform,1,left,47,47,0,47,0,0,47,47,0,0,47,47,47,0,0,47,0,Mon Sep 14 2020 11:48:38 GMT+0200 (Central European Summer Time),The main experiment item,yes,no,mono,no,18,no,white,no,no,768,legacy,legacy,8,osweb,1.3.8,1,y,left,left,left,left,840,3479,10921,840,2,legacy,1600076979905,1,1024,2,48000,-16,experiment,1,odd,8,323630,313748,29,321400,320380,29,80753,325646,322413,326495,29,325646,Sternberg,35,57971,48,yes,1024
73,73,1210,1210,black,no,experiment,legacy,legacy,legacy,0,uniform,1,right,48,48,0,48,0,0,48,48,0,0,48,48,48,0,0,48,0,Mon Sep 14 2020 11:48:38 GMT+0200 (Central European Summer Time),The main experiment item,yes,no,mono,no,18,no,white,no,no,768,legacy,legacy,8 5 7 3 6,osweb,1.3.8,0,n,right,left,left,right,1305,3479,10921,1305,2,legacy,1600076979905,5,1024,2,48000,-16,experiment,1,odd,9,329746,326497,29,327518,320380,29,80753,331763,328531,333079,29,331763,Sternberg,36,59276,49,yes,1024
74,74,1210,1210,black,no,experiment,legacy,legacy,legacy,0,uniform,1,left,49,49,0,49,0,0,49,49,0,0,49,49,49,0,0,49,0,Mon Sep 14 2020 11:48:38 GMT+0200 (Central European Summer Time),The main experiment item,yes,no,mono,no,18,no,white,no,no,768,legacy,legacy,6 9 3 1,osweb,1.3.8,4,y,left,left,left,left,1233,3479,10921,1233,2,legacy,1600076979905,4,1024,2,48000,-16,experiment,1,odd,1,336329,333081,29,334101,320380,29,80753,338348,335113,339596,29,338347,Sternberg,37,60509,50,yes,1024
75,75,1216,1216,black,no,experiment,legacy,legacy,legacy,0,uniform,1,right,50,50,0,50,0,0,50,50,0,0,50,50,50,0,0,50,0,Mon Sep 14 2020 11:48:38 GMT+0200 (Central European Summer Time),The main experiment item,yes,no,mono,no,18,no,white,no,no,768,legacy,legacy,7 1 8 4 9 3,osweb,1.3.8,0,n,right,left,left,right,1503,3479,10921,1503,2,legacy,1600076979905,6,1024,2,48000,-16,experiment,1,odd,6,342846,339598,29,340618,320380,29,80753,344862,341629,346379,29,344862,Sternberg,38,62012,51,yes,1024
75,75,1214,1214,black,no,experiment,legacy,legacy,legacy,0,uniform,1,left,51,51,0,51,0,0,51,51,0,0,51,51,51,0,0,51,0,Mon Sep 14 2020 11:48:38 GMT+0200 (Central European Summer Time),The main experiment item,yes,no,mono,no,18,no,white,no,no,768,legacy,legacy,2 6 1 7 4,osweb,1.3.8,2,y,left,left,left,left,1131,3479,10921,1131,2,legacy,1600076979905,5,1024,2,48000,-16,experiment,1,odd,6,349629,346380,29,347399,320380,29,80753,351646,348413,352778,29,351646,Sternberg,39,63143,52,yes,1024
75,75,1208,1208,black,no,experiment,legacy,legacy,legacy,0,uniform,1,right,52,52,0,52,0,0,52,52,0,0,52,52,52,0,0,52,0,Mon Sep 14 2020 11:48:38 GMT+0200 (Central European Summer Time),The main experiment item,yes,no,mono,no,18,no,white,no,no,768,legacy,legacy,1 3 2 6 9,osweb,1.3.8,0,n,right,left,left,right,880,3479,10921,880,2,legacy,1600076979905,5,1024,2,48000,-16,experiment,1,odd,5,356028,352780,29,353799,320380,29,80753,358029,354813,358912,29,358029,Sternberg,40,64023,53,yes,1024
76,76,1204,1204,black,no,experiment,legacy,legacy,legacy,0,uniform,1,right,53,53,0,53,0,0,53,53,0,0,53,53,53,0,0,53,0,Mon Sep 14 2020 11:48:38 GMT+0200 (Central European Summer Time),The main experiment item,yes,no,mono,no,18,no,white,no,no,768,legacy,legacy,9 5 3 2 8 6,osweb,1.3.8,0,n,right,left,left,right,973,3479,10921,973,2,legacy,1600076979905,6,1024,2,48000,-16,experiment,1,odd,7,362162,358914,29,359933,320380,29,80753,364179,360947,365162,29,364179,Sternberg,41,64996,54,yes,1024
75,75,1199,1199,black,no,experiment,legacy,legacy,legacy,0,uniform,0,right,54,54,0,54,0,0,54,54,0,0,54,54,54,0,0,54,0,Mon Sep 14 2020 11:48:38 GMT+0200 (Central European Summer Time),The main experiment item,yes,no,mono,no,18,no,white,no,no,768,legacy,legacy,7 8 6 1,osweb,1.3.8,0,n,left,left,left,left,949,3479,10921,949,2,legacy,1600076979905,4,1024,2,48000,-16,experiment,1,odd,3,368412,365164,29,366182,320380,29,80753,370413,367195,371379,29,370413,Sternberg,41,65945,55,yes,1024
75,75,1199,1199,black,no,experiment,legacy,legacy,legacy,0,uniform,1,left,55,55,0,55,0,0,55,55,0,0,55,55,55,0,0,55,0,Mon Sep 14 2020 11:48:38 GMT+0200 (Central European Summer Time),The main experiment item,yes,no,mono,no,18,no,white,no,no,768,legacy,legacy,8 9 5 7 1 6,osweb,1.3.8,4,y,left,left,left,left,1224,3479,10921,1224,2,legacy,1600076979905,6,1024,2,48000,-16,experiment,1,odd,7,374613,365164,29,372399,371379,29,80753,376629,373412,377862,29,376629,Sternberg,42,67169,56,yes,1024
74,74,1214,1214,black,no,experiment,legacy,legacy,legacy,0,uniform,0,right,56,56,0,56,0,0,56,56,0,0,56,56,56,0,0,56,0,Mon Sep 14 2020 11:48:38 GMT+0200 (Central European Summer Time),The main experiment item,yes,no,mono,no,18,no,white,no,no,768,legacy,legacy,1 7 8 3 9,osweb,1.3.8,0,n,None,left,left,None,2015,3479,10921,2015,2,legacy,1600076979905,5,1024,2,48000,-16,experiment,1,odd,2,381111,377862,29,378882,371379,29,80753,383113,379896,385129,29,383112,Sternberg,42,69184,57,yes,1024
74,74,1212,1212,black,no,experiment,legacy,legacy,legacy,0,uniform,1,left,57,57,0,57,0,0,57,57,0,0,57,57,57,0,0,57,0,Mon Sep 14 2020 11:48:38 GMT+0200 (Central European Summer Time),The main experiment item,yes,no,mono,no,18,no,white,no,no,768,legacy,legacy,7 2 3,osweb,1.3.8,3,y,left,left,left,left,1127,3479,10921,1127,2,legacy,1600076979905,3,1024,2,48000,-16,experiment,1,odd,3,388379,377862,29,386149,385129,29,80753,390396,387162,391529,29,390396,Sternberg,43,70311,58,yes,1024
75,75,1214,1214,black,no,experiment,legacy,legacy,legacy,0,uniform,1,right,58,58,0,58,0,0,58,58,0,0,58,58,58,0,0,58,0,Mon Sep 14 2020 11:48:38 GMT+0200 (Central European Summer Time),The main experiment item,yes,no,mono,no,18,no,white,no,no,768,legacy,legacy,5 3 2 6 9 8,osweb,1.3.8,0,n,right,left,left,right,1343,3479,10921,1343,2,legacy,1600076979905,6,1024,2,48000,-16,experiment,1,odd,4,394778,391529,29,392549,385129,29,80753,396795,393563,398144,29,396795,Sternberg,44,71654,59,yes,1024
73,73,1226,1226,black,no,experiment,legacy,legacy,legacy,0,uniform,0,left,59,59,0,59,0,0,59,59,0,0,59,59,59,0,0,59,0,Mon Sep 14 2020 11:48:38 GMT+0200 (Central European Summer Time),The main experiment item,yes,no,mono,no,18,no,white,no,no,768,legacy,legacy,7 1 8 5 6 2,osweb,1.3.8,2,y,right,left,left,right,1882,3479,10921,1882,2,legacy,1600076979905,6,1024,2,48000,-16,experiment,1,odd,1,401395,398145,29,399166,385129,29,80753,403411,400178,405294,29,403411,Sternberg,44,73536,60,yes,1024
74,74,1219,1219,black,no,experiment,legacy,legacy,legacy,0,uniform,1,right,60,60,0,60,0,0,60,60,0,0,60,60,60,0,0,60,0,Mon Sep 14 2020 11:48:38 GMT+0200 (Central European Summer Time),The main experiment item,yes,no,mono,no,18,no,white,no,no,768,legacy,legacy,7 1 5 6 3,osweb,1.3.8,0,n,right,left,left,right,840,3479,10921,840,2,legacy,1600076979905,5,1024,2,48000,-16,experiment,1,odd,8,408544,398145,29,406316,405295,29,80753,410561,407329,411411,29,410561,Sternberg,45,74376,61,yes,1024
74,74,1217,1217,black,no,experiment,legacy,legacy,legacy,0,uniform,1,right,61,61,0,61,0,0,61,61,0,0,61,61,61,0,0,61,0,Mon Sep 14 2020 11:48:38 GMT+0200 (Central European Summer Time),The main experiment item,yes,no,mono,no,18,no,white,no,no,768,legacy,legacy,1 6 4 3 9 7,osweb,1.3.8,0,n,right,left,left,right,1079,3479,10921,1079,2,legacy,1600076979905,6,1024,2,48000,-16,experiment,1,odd,8,414661,411412,29,412431,405295,29,80753,416678,413446,417760,29,416678,Sternberg,46,75455,62,yes,1024
75,75,1220,1220,black,no,experiment,legacy,legacy,legacy,0,uniform,1,left,62,62,0,62,0,0,62,62,0,0,62,62,62,0,0,62,0,Mon Sep 14 2020 11:48:38 GMT+0200 (Central European Summer Time),The main experiment item,yes,no,mono,no,18,no,white,no,no,768,legacy,legacy,4 1 5,osweb,1.3.8,2,y,left,left,left,left,1413,3479,10921,1413,2,legacy,1600076979905,3,1024,2,48000,-16,experiment,1,odd,1,421011,417761,29,418783,405295,29,80753,423027,419794,424444,29,423027,Sternberg,47,76868,63,yes,1024
73,73,1219,1219,black,no,experiment,legacy,legacy,legacy,0,uniform,0,left,63,63,0,63,0,0,63,63,0,0,63,63,63,0,0,63,0,Mon Sep 14 2020 11:48:38 GMT+0200 (Central European Summer Time),The main experiment item,yes,no,mono,no,18,no,white,no,no,768,legacy,legacy,1 4 9 3 2 5,osweb,1.3.8,3,y,right,left,left,right,1140,3479,10921,1140,2,legacy,1600076979905,6,1024,2,48000,-16,experiment,1,odd,9,427694,424446,29,425466,405295,29,80753,429712,426479,430861,29,429712,Sternberg,47,78008,64,yes,1024
74,74,1213,1213,black,no,experiment,legacy,legacy,legacy,0,uniform,1,left,64,64,0,64,0,0,64,64,0,0,64,64,64,0,0,64,0,Mon Sep 14 2020 11:48:38 GMT+0200 (Central European Summer Time),The main experiment item,yes,no,mono,no,18,no,white,no,no,768,legacy,legacy,8 5 3 7 4 6,osweb,1.3.8,6,y,left,left,left,left,833,3479,10921,833,2,legacy,1600076979905,6,1024,2,48000,-16,experiment,1,odd,6,434111,424446,29,431881,430862,29,80753,436129,432894,436977,29,436129,Sternberg,48,78841,65,yes,1024
73,73,1209,1209,black,no,experiment,legacy,legacy,legacy,0,uniform,0,left,65,65,0,65,0,0,65,65,0,0,65,65,65,0,0,65,0,Mon Sep 14 2020 11:48:38 GMT+0200 (Central European Summer Time),The main experiment item,yes,no,mono,no,18,no,white,no,no,768,legacy,legacy,5 2 9 6 1 7,osweb,1.3.8,3,y,right,left,left,right,950,3479,10921,950,2,legacy,1600076979905,6,1024,2,48000,-16,experiment,1,odd,9,440227,436979,29,437998,430862,29,80753,442245,439011,443211,29,442245,Sternberg,48,79791,66,yes,1024
73,73,1197,1197,black,no,experiment,legacy,legacy,legacy,0,uniform,1,right,66,66,0,66,0,0,66,66,0,0,66,66,66,0,0,66,0,Mon Sep 14 2020 11:48:38 GMT+0200 (Central European Summer Time),The main experiment item,yes,no,mono,no,18,no,white,no,no,768,legacy,legacy,9,osweb,1.3.8,0,n,right,left,left,right,432,3479,10921,432,2,legacy,1600076979905,1,1024,2,48000,-16,experiment,1,odd,6,446461,436979,29,444231,443212,29,80753,448477,445244,448910,29,448477,Sternberg,49,80223,67,yes,1024
74,74,1194,1194,black,no,experiment,legacy,legacy,legacy,0,uniform,1,right,67,67,0,67,0,0,67,67,0,0,67,67,67,0,0,67,0,Mon Sep 14 2020 11:48:38 GMT+0200 (Central European Summer Time),The main experiment item,yes,no,mono,no,18,no,white,no,no,768,legacy,legacy,7 9,osweb,1.3.8,0,n,right,left,left,right,988,3479,10921,988,2,legacy,1600076979905,2,1024,2,48000,-16,experiment,1,odd,1,452160,448911,29,449932,443212,29,80753,454176,450945,455176,29,454176,Sternberg,50,81211,68,yes,1024
72,72,1191,1191,black,no,experiment,legacy,legacy,legacy,0,uniform,0,left,68,68,0,68,0,0,68,68,0,0,68,68,68,0,0,68,0,Mon Sep 14 2020 11:48:38 GMT+0200 (Central European Summer Time),The main experiment item,yes,no,mono,no,18,no,white,no,no,768,legacy,legacy,3 2 1 4 7,osweb,1.3.8,2,y,right,left,left,right,963,3479,10921,963,2,legacy,1600076979905,5,1024,2,48000,-16,experiment,1,odd,2,458428,455178,29,456199,443212,29,80753,460444,457211,461411,29,460444,Sternberg,50,82174,69,yes,1024
73,73,1186,1186,black,no,experiment,legacy,legacy,legacy,0,uniform,1,left,69,69,0,69,0,0,69,69,0,0,69,69,69,0,0,69,0,Mon Sep 14 2020 11:48:38 GMT+0200 (Central European Summer Time),The main experiment item,yes,no,mono,no,18,no,white,no,no,768,legacy,legacy,2 4 6 9,osweb,1.3.8,3,y,left,left,left,left,828,3479,10921,828,2,legacy,1600076979905,4,1024,2,48000,-16,experiment,1,odd,6,464661,455178,29,462431,461412,29,80753,466678,463443,467509,29,466678,Sternberg,51,83002,70,yes,1024
73,73,1180,1180,black,no,experiment,legacy,legacy,legacy,0,uniform,1,left,70,70,0,70,0,0,70,70,0,0,70,70,70,0,0,70,0,Mon Sep 14 2020 11:48:38 GMT+0200 (Central European Summer Time),The main experiment item,yes,no,mono,no,18,no,white,no,no,768,legacy,legacy,8 1 6,osweb,1.3.8,3,y,left,left,left,left,803,3479,10921,803,2,legacy,1600076979905,3,1024,2,48000,-16,experiment,1,odd,6,470761,467510,29,468532,461412,29,80753,472777,469544,473594,29,472777,Sternberg,52,83805,71,yes,1024
74,74,1174,1174,black,no,experiment,legacy,legacy,legacy,0,uniform,1,left,71,71,0,71,0,0,71,71,0,0,71,71,71,0,0,71,0,Mon Sep 14 2020 11:48:38 GMT+0200 (Central European Summer Time),The main experiment item,yes,no,mono,no,18,no,white,no,no,768,legacy,legacy,6 2,osweb,1.3.8,1,y,left,left,left,left,728,3479,10921,728,2,legacy,1600076979905,2,1024,2,48000,-16,experiment,1,odd,6,476843,473595,29,474615,461412,29,80753,478860,475627,479593,29,478860,Sternberg,53,84533,72,yes,1024
74,74,1170,1170,black,no,experiment,legacy,legacy,legacy,0,uniform,1,left,72,72,0,72,0,0,72,72,0,0,72,72,72,0,0,72,0,Mon Sep 14 2020 11:48:38 GMT+0200 (Central European Summer Time),The main experiment item,yes,no,mono,no,18,no,white,no,no,768,legacy,legacy,3 9 7 6 4,osweb,1.3.8,3,y,left,left,left,left,848,3479,10921,848,2,legacy,1600076979905,5,1024,2,48000,-16,experiment,1,odd,7,482843,479594,29,480615,461412,29,80753,484861,481628,485710,29,484861,Sternberg,54,85381,73,yes,1024
74,74,1162,1162,black,no,experiment,legacy,legacy,legacy,0,uniform,1,left,73,73,0,73,0,0,73,73,0,0,73,73,73,0,0,73,0,Mon Sep 14 2020 11:48:38 GMT+0200 (Central European Summer Time),The main experiment item,yes,no,mono,no,18,no,white,no,no,768,legacy,legacy,2 3,osweb,1.3.8,1,y,left,left,left,left,604,3479,10921,604,2,legacy,1600076979905,2,1024,2,48000,-16,experiment,1,odd,2,488960,485710,29,486732,461412,29,80753,490977,487745,491592,29,490977,Sternberg,55,85985,74,yes,1024
75,75,1160,1160,black,no,experiment,legacy,legacy,legacy,0,uniform,1,right,74,74,0,74,0,0,74,74,0,0,74,74,74,0,0,74,0,Mon Sep 14 2020 11:48:38 GMT+0200 (Central European Summer Time),The main experiment item,yes,no,mono,no,18,no,white,no,no,768,legacy,legacy,4 1,osweb,1.3.8,0,n,right,left,left,right,987,3479,10921,987,2,legacy,1600076979905,2,1024,2,48000,-16,experiment,1,odd,6,494843,491594,29,492613,461412,29,80753,496860,493628,497859,29,496860,Sternberg,56,86972,75,yes,1024
75,75,1156,1156,black,no,experiment,legacy,legacy,legacy,0,uniform,1,right,75,75,0,75,0,0,75,75,0,0,75,75,75,0,0,75,0,Mon Sep 14 2020 11:48:38 GMT+0200 (Central European Summer Time),The main experiment item,yes,no,mono,no,18,no,white,no,no,768,legacy,legacy,6 8 4,osweb,1.3.8,0,n,right,left,left,right,852,3479,10921,852,2,legacy,1600076979905,3,1024,2,48000,-16,experiment,1,odd,1,501110,497860,29,498880,461412,29,80753,503126,499894,503993,29,503126,Sternberg,57,87824,76,yes,1024
75,75,1161,1161,black,no,experiment,legacy,legacy,legacy,0,uniform,1,right,76,76,0,76,0,0,76,76,0,0,76,76,76,0,0,76,0,Mon Sep 14 2020 11:48:38 GMT+0200 (Central European Summer Time),The main experiment item,yes,no,mono,no,18,no,white,no,no,768,legacy,legacy,1 4 9 3,osweb,1.3.8,0,n,right,left,left,right,1592,3479,10921,1592,2,legacy,1600076979905,4,1024,2,48000,-16,experiment,1,odd,5,507243,503994,29,505015,461412,29,80753,509260,506027,510859,29,509260,Sternberg,58,89416,77,yes,1024
76,76,1160,1160,black,no,experiment,legacy,legacy,legacy,0,uniform,1,left,77,77,0,77,0,0,77,77,0,0,77,77,77,0,0,77,0,Mon Sep 14 2020 11:48:38 GMT+0200 (Central European Summer Time),The main experiment item,yes,no,mono,no,18,no,white,no,no,768,legacy,legacy,9 6 2 4 1,osweb,1.3.8,4,y,left,left,left,left,1094,3479,10921,1094,2,legacy,1600076979905,5,1024,2,48000,-16,experiment,1,odd,4,514109,510861,29,511880,461412,29,80753,516126,512893,517226,29,516126,Sternberg,59,90510,78,yes,1024
75,75,1155,1155,black,no,experiment,legacy,legacy,legacy,0,uniform,0,right,78,78,0,78,0,0,78,78,0,0,78,78,78,0,0,78,0,Mon Sep 14 2020 11:48:38 GMT+0200 (Central European Summer Time),The main experiment item,yes,no,mono,no,18,no,white,no,no,768,legacy,legacy,8 4 3 5,osweb,1.3.8,0,n,left,left,left,left,774,3479,10921,774,2,legacy,1600076979905,4,1024,2,48000,-16,experiment,1,odd,6,520460,517227,29,518246,461412,29,80753,522476,519259,523259,29,522476,Sternberg,59,91284,79,yes,1024
74,74,1153,1153,black,no,experiment,legacy,legacy,legacy,0,uniform,0,left,79,79,0,79,0,0,79,79,0,0,79,79,79,0,0,79,0,Mon Sep 14 2020 11:48:38 GMT+0200 (Central European Summer Time),The main experiment item,yes,no,mono,no,18,no,white,no,no,768,legacy,legacy,6 7 8 5,osweb,1.3.8,3,y,right,left,left,right,979,3479,10921,979,2,legacy,1600076979905,4,1024,2,48000,-16,experiment,1,odd,8,526510,517227,29,524279,523260,29,80753,528526,525292,529509,29,528526,Sternberg,59,92263,80,yes,1024
73,73,1164,1164,black,no,experiment,legacy,legacy,legacy,0,uniform,0,left,80,80,0,80,0,0,80,80,0,0,80,80,80,0,0,80,0,Mon Sep 14 2020 11:48:38 GMT+0200 (Central European Summer Time),The main experiment item,yes,no,mono,no,18,no,white,no,no,768,legacy,legacy,7 8 6 3 1,osweb,1.3.8,5,y,None,left,left,None,2016,3479,10921,2016,2,legacy,1600076979905,5,1024,2,48000,-16,experiment,1,odd,1,532759,517227,29,530530,529510,29,80753,534776,531543,536792,29,534776,Sternberg,59,94279,81,yes,1024
72,72,1169,1169,black,no,experiment,legacy,legacy,legacy,0,uniform,0,right,81,81,0,81,0,0,81,81,0,0,81,81,81,0,0,81,0,Mon Sep 14 2020 11:48:38 GMT+0200 (Central European Summer Time),The main experiment item,yes,no,mono,no,18,no,white,no,no,768,legacy,legacy,8 2 1 4 5 9,osweb,1.3.8,0,n,left,left,left,left,1547,3479,10921,1547,2,legacy,1600076979905,6,1024,2,48000,-16,experiment,1,odd,7,540026,517227,29,537813,536793,29,80753,542043,538825,543591,29,542043,Sternberg,59,95826,82,yes,1024
72,72,1168,1168,black,no,experiment,legacy,legacy,legacy,0,uniform,1,right,82,82,0,82,0,0,82,82,0,0,82,82,82,0,0,82,0,Mon Sep 14 2020 11:48:38 GMT+0200 (Central European Summer Time),The main experiment item,yes,no,mono,no,18,no,white,no,no,768,legacy,legacy,7 9 1 6,osweb,1.3.8,0,n,right,left,left,right,1109,3479,10921,1109,2,legacy,1600076979905,4,1024,2,48000,-16,experiment,1,odd,4,546843,517227,29,544613,543592,29,80753,548860,545626,549976,29,548860,Sternberg,60,96935,83,yes,1024
73,73,1164,1164,black,no,experiment,legacy,legacy,legacy,0,uniform,1,left,83,83,0,83,0,0,83,83,0,0,83,83,83,0,0,83,0,Mon Sep 14 2020 11:48:38 GMT+0200 (Central European Summer Time),The main experiment item,yes,no,mono,no,18,no,white,no,no,768,legacy,legacy,4 7 6 8 2 3,osweb,1.3.8,6,y,left,left,left,left,824,3479,10921,824,2,legacy,1600076979905,6,1024,2,48000,-16,experiment,1,odd,3,553226,549977,29,550998,543592,29,80753,555243,552009,556075,29,555243,Sternberg,61,97759,84,yes,1024
72,72,1163,1163,black,no,experiment,legacy,legacy,legacy,0,uniform,0,left,84,84,0,84,0,0,84,84,0,0,84,84,84,0,0,84,0,Mon Sep 14 2020 11:48:38 GMT+0200 (Central European Summer Time),The main experiment item,yes,no,mono,no,18,no,white,no,no,768,legacy,legacy,9 3 1 2 5,osweb,1.3.8,4,y,right,left,left,right,1069,3479,10921,1069,2,legacy,1600076979905,5,1024,2,48000,-16,experiment,1,odd,2,559326,556076,29,557095,543592,29,80753,561342,558108,562424,29,561342,Sternberg,61,98828,85,yes,1024
72,72,1155,1155,black,no,experiment,legacy,legacy,legacy,0,uniform,1,left,85,85,0,85,0,0,85,85,0,0,85,85,85,0,0,85,0,Mon Sep 14 2020 11:48:38 GMT+0200 (Central European Summer Time),The main experiment item,yes,no,mono,no,18,no,white,no,no,768,legacy,legacy,3 5 7 1,osweb,1.3.8,3,y,left,left,left,left,468,3479,10921,468,2,legacy,1600076979905,4,1024,2,48000,-16,experiment,1,odd,7,565675,556076,29,563446,562425,29,80753,567692,564460,568175,29,567692,Sternberg,62,99296,86,yes,1024
