Block,Category,Mod_level,Prime_word,acc,accuracy,average_response_time,avg_rt,background,bidi,block_picker,browser_codename,browser_name,browser_version,canvas_backend,category,clock_backend,color_backend,compensation,coordinates,correct,correct_keyboard_response,correct_response,count_block1,count_block2,count_block3,count_block4,count_correct,count_counter_balance,count_experiment,count_fixation,count_incorrect,count_instructions1,count_instructions2,count_instructions3,count_keyboard_response,count_logger,count_mask1,count_mask2,count_osweb,count_practice,count_prime,count_target,count_thanks,count_trial_sequence,date_startdate,date_startdateUTC,date_starttime,datetime,description,disable_garbage_collection,experiment_debug,experiment_parameters,experiment_path,experiment_pilot,experiment_taskname,experiment_taskversion,font_bold,font_family,font_italic,font_size,font_underline,foreground,form_clicks,fullscreen,height,jatosStudyResultId,jatosVersion,keyboard_backend,mouse_backend,opensesame_codename,opensesame_version,penwidth,prime,queryParams_batchId,queryParams_generalMultiple,repeat_cycle,response,response_instructions1,response_instructions2,response_instructions3,response_keyboard_response,response_time,response_time_instructions1,response_time_instructions2,response_time_instructions3,response_time_keyboard_response,round_decimals,sampler_backend,screen_availableHeight,screen_availableWidth,screen_colorDepth,screen_height,screen_pixelDepth,screen_screenX,screen_screenY,screen_width,sessionid,sound_buf_size,sound_channels,sound_freq,sound_sample_size,start,subject_nr,subject_parity,system_os,target,time_block1,time_block2,time_block3,time_block4,time_correct,time_counter_balance,time_fixation,time_incorrect,time_instructions1,time_instructions2,time_instructions3,time_keyboard_response,time_logger,time_mask1,time_mask2,time_practice,time_prime,time_target,title,total_correct,total_response_time,total_responses,uniform_coordinates,width,word_length
practice,,practice,,100,100,1888,1888,black,no,4,Mozilla,Netscape,"5.0 (Macintosh; Intel Mac OS X 10_13_4) AppleWebKit/537.36 (KHTML, like Gecko) Chrome/107.0.0.0 Safari/537.36",psycho,natural,psycho,psycho,0,uniform,1,1,N,0,0,0,0,0,0,0,0,0,0,0,0,0,0,0,0,0,0,0,0,0,0,05-11-22,05-11-22,14:19:10,Mon Dec 05 2022 14:19:10 GMT+0100 (Centraleuropæisk normaltid),The main experiment item,yes,0,0,/Users/ethan/Documents/GitHub/OpenSesame/Class2,0,0,0,no,mono,no,18,no,white,no,no,768,1007,3.6.1,psycho,psycho,osweb,1.4.11,1,*****,269,,0,n,space,space,,n,1888,15021,4474,,1888,2,psycho,733,1280,24,800,24,0,23,1280,1670246417547,1024,2,48000,-16,experiment,1,odd,MacIntel,VINE,91,91,91,91,,85,19746,,90,15114,,20532,22431,20415,20497,91,20463,20531,ExPsyLing2022_Class2,1,1888,1,yes,1024,4
practice,,practice,,100,100,1398,1398,black,no,4,Mozilla,Netscape,"5.0 (Macintosh; Intel Mac OS X 10_13_4) AppleWebKit/537.36 (KHTML, like Gecko) Chrome/107.0.0.0 Safari/537.36",psycho,manmade,psycho,psycho,0,uniform,1,1,M,0,0,0,0,1,0,0,1,1,0,0,0,1,1,1,1,0,0,1,1,0,1,05-11-22,05-11-22,14:19:10,Mon Dec 05 2022 14:19:10 GMT+0100 (Centraleuropæisk normaltid),The main experiment item,yes,0,0,/Users/ethan/Documents/GitHub/OpenSesame/Class2,0,0,0,no,mono,no,18,no,white,no,no,768,1007,3.6.1,psycho,psycho,osweb,1.4.11,1,*****,269,,0,m,space,space,,m,908,15021,4474,,908,2,psycho,733,1280,24,800,24,0,23,1280,1670246417547,1024,2,48000,-16,experiment,1,odd,MacIntel,BOAT,91,91,91,91,22432,85,23051,,90,15114,,23848,24764,23716,23798,91,23765,23848,ExPsyLing2022_Class2,2,2796,2,yes,1024,4
practice,,practice,,100,100,1291,1291,black,no,4,Mozilla,Netscape,"5.0 (Macintosh; Intel Mac OS X 10_13_4) AppleWebKit/537.36 (KHTML, like Gecko) Chrome/107.0.0.0 Safari/537.36",psycho,manmade,psycho,psycho,0,uniform,1,1,M,0,0,0,0,2,0,0,2,2,0,0,0,2,2,2,2,0,0,2,2,0,2,05-11-22,05-11-22,14:19:10,Mon Dec 05 2022 14:19:10 GMT+0100 (Centraleuropæisk normaltid),The main experiment item,yes,0,0,/Users/ethan/Documents/GitHub/OpenSesame/Class2,0,0,0,no,mono,no,18,no,white,no,no,768,1007,3.6.1,psycho,psycho,osweb,1.4.11,1,*****,269,,0,m,space,space,,m,1077,15021,4474,,1077,2,psycho,733,1280,24,800,24,0,23,1280,1670246417547,1024,2,48000,-16,experiment,1,odd,MacIntel,STAIRS,91,91,91,91,24765,85,25379,,90,15114,,26167,27250,26035,26118,91,26084,26167,ExPsyLing2022_Class2,3,3873,3,yes,1024,6
practice,,practice,,75,75,1473,1473,black,no,4,Mozilla,Netscape,"5.0 (Macintosh; Intel Mac OS X 10_13_4) AppleWebKit/537.36 (KHTML, like Gecko) Chrome/107.0.0.0 Safari/537.36",psycho,natural,psycho,psycho,0,uniform,0,0,N,0,0,0,0,3,0,0,3,3,0,0,0,3,3,3,3,0,0,3,3,0,3,05-11-22,05-11-22,14:19:10,Mon Dec 05 2022 14:19:10 GMT+0100 (Centraleuropæisk normaltid),The main experiment item,yes,0,0,/Users/ethan/Documents/GitHub/OpenSesame/Class2,0,0,0,no,mono,no,18,no,white,no,no,768,1007,3.6.1,psycho,psycho,osweb,1.4.11,1,*****,269,,0,None,space,space,,None,2018,15021,4474,,2018,2,psycho,733,1280,24,800,24,0,23,1280,1670246417547,1024,2,48000,-16,experiment,1,odd,MacIntel,ZEBRA,91,91,91,91,27251,85,27870,,90,15114,,28668,30688,28535,28619,91,28586,28668,ExPsyLing2022_Class2,3,5891,4,yes,1024,5
block4,natural,unrelated,BEAD,80,80,1339,1339,black,no,4,Mozilla,Netscape,"5.0 (Macintosh; Intel Mac OS X 10_13_4) AppleWebKit/537.36 (KHTML, like Gecko) Chrome/107.0.0.0 Safari/537.36",psycho,natural,psycho,psycho,0,uniform,1,1,N,0,0,0,0,4,0,0,4,4,0,0,0,4,4,4,4,0,0,4,4,0,4,05-11-22,05-11-22,14:19:10,Mon Dec 05 2022 14:19:10 GMT+0100 (Centraleuropæisk normaltid),The main experiment item,yes,0,0,/Users/ethan/Documents/GitHub/OpenSesame/Class2,0,0,0,no,mono,no,18,no,white,no,no,768,1007,3.6.1,psycho,psycho,osweb,1.4.11,1,*****,269,,0,n,space,space,n,n,802,15021,4474,2528,802,2,psycho,733,1280,24,800,24,0,23,1280,1670246417547,1024,2,48000,-16,experiment,1,odd,MacIntel,PEAR,91,91,91,91,27251,85,33908,30689,90,15114,31203,34689,35504,34573,34655,91,34621,34689,ExPsyLing2022_Class2,4,6693,5,yes,1024,4
block4,natural,unrelated,BEAST,83,83,1226,1226,black,no,4,Mozilla,Netscape,"5.0 (Macintosh; Intel Mac OS X 10_13_4) AppleWebKit/537.36 (KHTML, like Gecko) Chrome/107.0.0.0 Safari/537.36",psycho,natural,psycho,psycho,0,uniform,1,1,N,0,0,0,0,5,0,0,5,5,0,0,0,5,5,5,5,0,0,5,5,0,5,05-11-22,05-11-22,14:19:10,Mon Dec 05 2022 14:19:10 GMT+0100 (Centraleuropæisk normaltid),The main experiment item,yes,0,0,/Users/ethan/Documents/GitHub/OpenSesame/Class2,0,0,0,no,mono,no,18,no,white,no,no,768,1007,3.6.1,psycho,psycho,osweb,1.4.11,1,*****,269,,0,n,space,space,n,n,661,15021,4474,2528,661,2,psycho,733,1280,24,800,24,0,23,1280,1670246417547,1024,2,48000,-16,experiment,1,odd,MacIntel,EGGS,91,91,91,91,35506,85,36141,30689,90,15114,31203,36938,37604,36806,36889,91,36855,36938,ExPsyLing2022_Class2,5,7354,6,yes,1024,4
block4,natural,exact,CATS,86,86,1148,1148,black,no,4,Mozilla,Netscape,"5.0 (Macintosh; Intel Mac OS X 10_13_4) AppleWebKit/537.36 (KHTML, like Gecko) Chrome/107.0.0.0 Safari/537.36",psycho,natural,psycho,psycho,0,uniform,1,1,N,0,0,0,0,6,0,0,6,6,0,0,0,6,6,6,6,0,0,6,6,0,6,05-11-22,05-11-22,14:19:10,Mon Dec 05 2022 14:19:10 GMT+0100 (Centraleuropæisk normaltid),The main experiment item,yes,0,0,/Users/ethan/Documents/GitHub/OpenSesame/Class2,0,0,0,no,mono,no,18,no,white,no,no,768,1007,3.6.1,psycho,psycho,osweb,1.4.11,1,*****,269,,0,n,space,space,n,n,685,15021,4474,2528,685,2,psycho,733,1280,24,800,24,0,23,1280,1670246417547,1024,2,48000,-16,experiment,1,odd,MacIntel,CATS,91,91,91,91,37605,85,38248,30689,90,15114,31203,39038,39738,38907,38990,91,38955,39038,ExPsyLing2022_Class2,6,8039,7,yes,1024,4
block4,natural,two_modifications,)OG5,88,88,1091,1091,black,no,4,Mozilla,Netscape,"5.0 (Macintosh; Intel Mac OS X 10_13_4) AppleWebKit/537.36 (KHTML, like Gecko) Chrome/107.0.0.0 Safari/537.36",psycho,natural,psycho,psycho,0,uniform,1,1,N,0,0,0,0,7,0,0,7,7,0,0,0,7,7,7,7,0,0,7,7,0,7,05-11-22,05-11-22,14:19:10,Mon Dec 05 2022 14:19:10 GMT+0100 (Centraleuropæisk normaltid),The main experiment item,yes,0,0,/Users/ethan/Documents/GitHub/OpenSesame/Class2,0,0,0,no,mono,no,18,no,white,no,no,768,1007,3.6.1,psycho,psycho,osweb,1.4.11,1,*****,269,,0,n,space,space,n,n,691,15021,4474,2528,691,2,psycho,733,1280,24,800,24,0,23,1280,1670246417547,1024,2,48000,-16,experiment,1,odd,MacIntel,DOGS,91,91,91,91,39740,85,40348,30689,90,15114,31203,41123,41822,41007,41074,91,41041,41123,ExPsyLing2022_Class2,7,8730,8,yes,1024,4
block4,natural,one_modification,)UCK,89,89,1072,1072,black,no,4,Mozilla,Netscape,"5.0 (Macintosh; Intel Mac OS X 10_13_4) AppleWebKit/537.36 (KHTML, like Gecko) Chrome/107.0.0.0 Safari/537.36",psycho,natural,psycho,psycho,0,uniform,1,1,N,0,0,0,0,8,0,0,8,8,0,0,0,8,8,8,8,0,0,8,8,0,8,05-11-22,05-11-22,14:19:10,Mon Dec 05 2022 14:19:10 GMT+0100 (Centraleuropæisk normaltid),The main experiment item,yes,0,0,/Users/ethan/Documents/GitHub/OpenSesame/Class2,0,0,0,no,mono,no,18,no,white,no,no,768,1007,3.6.1,psycho,psycho,osweb,1.4.11,1,*****,269,,0,n,space,space,n,n,915,15021,4474,2528,915,2,psycho,733,1280,24,800,24,0,23,1280,1670246417547,1024,2,48000,-16,experiment,1,odd,MacIntel,DUCK,91,91,91,91,41824,85,42452,30689,90,15114,31203,43224,44140,43109,43191,91,43157,43224,ExPsyLing2022_Class2,8,9645,9,yes,1024,4
block4,manmade,two_modifications,)1SH,90,90,1045,1045,black,no,4,Mozilla,Netscape,"5.0 (Macintosh; Intel Mac OS X 10_13_4) AppleWebKit/537.36 (KHTML, like Gecko) Chrome/107.0.0.0 Safari/537.36",psycho,natural,psycho,psycho,0,uniform,1,1,M,0,0,0,0,9,0,0,9,9,0,0,0,9,9,9,9,0,0,9,9,0,9,05-11-22,05-11-22,14:19:10,Mon Dec 05 2022 14:19:10 GMT+0100 (Centraleuropæisk normaltid),The main experiment item,yes,0,0,/Users/ethan/Documents/GitHub/OpenSesame/Class2,0,0,0,no,mono,no,18,no,white,no,no,768,1007,3.6.1,psycho,psycho,osweb,1.4.11,1,*****,269,,0,m,space,space,n,m,804,15021,4474,2528,804,2,psycho,733,1280,24,800,24,0,23,1280,1670246417547,1024,2,48000,-16,experiment,1,odd,MacIntel,DISH,91,91,91,91,44141,85,44789,30689,90,15114,31203,45575,46390,45443,45526,91,45492,45575,ExPsyLing2022_Class2,9,10449,10,yes,1024,4
block4,manmade,two_modifications,OV3–ò,91,91,1017,1017,black,no,4,Mozilla,Netscape,"5.0 (Macintosh; Intel Mac OS X 10_13_4) AppleWebKit/537.36 (KHTML, like Gecko) Chrome/107.0.0.0 Safari/537.36",psycho,natural,psycho,psycho,0,uniform,1,1,M,0,0,0,0,10,0,0,10,10,0,0,0,10,10,10,10,0,0,10,10,0,10,05-11-22,05-11-22,14:19:10,Mon Dec 05 2022 14:19:10 GMT+0100 (Centraleuropæisk normaltid),The main experiment item,yes,0,0,/Users/ethan/Documents/GitHub/OpenSesame/Class2,0,0,0,no,mono,no,18,no,white,no,no,768,1007,3.6.1,psycho,psycho,osweb,1.4.11,1,*****,269,,0,m,space,space,n,m,740,15021,4474,2528,740,2,psycho,733,1280,24,800,24,0,23,1280,1670246417547,1024,2,48000,-16,experiment,1,odd,MacIntel,OVEN,91,91,91,91,46391,85,47039,30689,90,15114,31203,47808,48558,47691,47758,91,47724,47808,ExPsyLing2022_Class2,10,11189,11,yes,1024,4
block4,manmade,unrelated,KNACK,92,92,987,987,black,no,4,Mozilla,Netscape,"5.0 (Macintosh; Intel Mac OS X 10_13_4) AppleWebKit/537.36 (KHTML, like Gecko) Chrome/107.0.0.0 Safari/537.36",psycho,natural,psycho,psycho,0,uniform,1,1,M,0,0,0,0,11,0,0,11,11,0,0,0,11,11,11,11,0,0,11,11,0,11,05-11-22,05-11-22,14:19:10,Mon Dec 05 2022 14:19:10 GMT+0100 (Centraleuropæisk normaltid),The main experiment item,yes,0,0,/Users/ethan/Documents/GitHub/OpenSesame/Class2,0,0,0,no,mono,no,18,no,white,no,no,768,1007,3.6.1,psycho,psycho,osweb,1.4.11,1,*****,269,,0,m,space,space,n,m,660,15021,4474,2528,660,2,psycho,733,1280,24,800,24,0,23,1280,1670246417547,1024,2,48000,-16,experiment,1,odd,MacIntel,KNIFE,91,91,91,91,48559,85,49162,30689,90,15114,31203,49960,50624,49827,49910,91,49875,49960,ExPsyLing2022_Class2,11,11849,12,yes,1024,5
block4,natural,two_modifications,S–ò0W,92,92,979,979,black,no,4,Mozilla,Netscape,"5.0 (Macintosh; Intel Mac OS X 10_13_4) AppleWebKit/537.36 (KHTML, like Gecko) Chrome/107.0.0.0 Safari/537.36",psycho,natural,psycho,psycho,0,uniform,1,1,N,0,0,0,0,12,0,0,12,12,0,0,0,12,12,12,12,0,0,12,12,0,12,05-11-22,05-11-22,14:19:10,Mon Dec 05 2022 14:19:10 GMT+0100 (Centraleuropæisk normaltid),The main experiment item,yes,0,0,/Users/ethan/Documents/GitHub/OpenSesame/Class2,0,0,0,no,mono,no,18,no,white,no,no,768,1007,3.6.1,psycho,psycho,osweb,1.4.11,1,*****,269,,0,n,space,space,n,n,873,15021,4474,2528,873,2,psycho,733,1280,24,800,24,0,23,1280,1670246417547,1024,2,48000,-16,experiment,1,odd,MacIntel,SNOW,91,91,91,91,50625,85,51240,30689,90,15114,31203,51994,52876,51893,51960,91,51926,51993,ExPsyLing2022_Class2,12,12722,13,yes,1024,4
block4,manmade,exact,CAKE,86,86,951,951,black,no,4,Mozilla,Netscape,"5.0 (Macintosh; Intel Mac OS X 10_13_4) AppleWebKit/537.36 (KHTML, like Gecko) Chrome/107.0.0.0 Safari/537.36",psycho,natural,psycho,psycho,0,uniform,0,0,M,0,0,0,0,13,0,0,13,13,0,0,0,13,13,13,13,0,0,13,13,0,13,05-11-22,05-11-22,14:19:10,Mon Dec 05 2022 14:19:10 GMT+0100 (Centraleuropæisk normaltid),The main experiment item,yes,0,0,/Users/ethan/Documents/GitHub/OpenSesame/Class2,0,0,0,no,mono,no,18,no,white,no,no,768,1007,3.6.1,psycho,psycho,osweb,1.4.11,1,*****,269,,0,n,space,space,n,n,597,15021,4474,2528,597,2,psycho,733,1280,24,800,24,0,23,1280,1670246417547,1024,2,48000,-16,experiment,1,odd,MacIntel,CAKE,91,91,91,91,52877,85,53499,30689,90,15114,31203,54278,54877,54161,54245,91,54210,54278,ExPsyLing2022_Class2,12,13319,14,yes,1024,4
block4,natural,one_modification,5NAIL,87,87,953,953,black,no,4,Mozilla,Netscape,"5.0 (Macintosh; Intel Mac OS X 10_13_4) AppleWebKit/537.36 (KHTML, like Gecko) Chrome/107.0.0.0 Safari/537.36",psycho,natural,psycho,psycho,0,uniform,1,1,N,0,0,0,0,14,0,0,14,14,0,0,0,14,14,14,14,0,0,14,14,0,14,05-11-22,05-11-22,14:19:10,Mon Dec 05 2022 14:19:10 GMT+0100 (Centraleuropæisk normaltid),The main experiment item,yes,0,0,/Users/ethan/Documents/GitHub/OpenSesame/Class2,0,0,0,no,mono,no,18,no,white,no,no,768,1007,3.6.1,psycho,psycho,osweb,1.4.11,1,*****,269,,0,n,space,space,n,n,983,15021,4474,2528,983,2,psycho,733,1280,24,800,24,0,23,1280,1670246417547,1024,2,48000,-16,experiment,1,odd,MacIntel,SNAIL,91,91,91,91,52877,85,55495,54878,90,15114,31203,56293,57291,56162,56242,91,56195,56293,ExPsyLing2022_Class2,13,14302,15,yes,1024,5
block4,natural,two_modifications,I3E4K,88,88,981,981,black,no,4,Mozilla,Netscape,"5.0 (Macintosh; Intel Mac OS X 10_13_4) AppleWebKit/537.36 (KHTML, like Gecko) Chrome/107.0.0.0 Safari/537.36",psycho,natural,psycho,psycho,0,uniform,1,1,N,0,0,0,0,15,0,0,15,15,0,0,0,15,15,15,15,0,0,15,15,0,15,05-11-22,05-11-22,14:19:10,Mon Dec 05 2022 14:19:10 GMT+0100 (Centraleuropæisk normaltid),The main experiment item,yes,0,0,/Users/ethan/Documents/GitHub/OpenSesame/Class2,0,0,0,no,mono,no,18,no,white,no,no,768,1007,3.6.1,psycho,psycho,osweb,1.4.11,1,*****,269,,0,n,space,space,n,n,1390,15021,4474,2528,1390,2,psycho,733,1280,24,800,24,0,23,1280,1670246417547,1024,2,48000,-16,experiment,1,odd,MacIntel,BEAK,91,91,91,91,57293,85,57896,54878,90,15114,31203,58694,60093,58561,58645,91,58610,58694,ExPsyLing2022_Class2,14,15692,16,yes,1024,4
block4,manmade,exact,LOCK,88,88,976,976,black,no,4,Mozilla,Netscape,"5.0 (Macintosh; Intel Mac OS X 10_13_4) AppleWebKit/537.36 (KHTML, like Gecko) Chrome/107.0.0.0 Safari/537.36",psycho,natural,psycho,psycho,0,uniform,1,1,M,0,0,0,0,16,0,0,16,16,0,0,0,16,16,16,16,0,0,16,16,0,16,05-11-22,05-11-22,14:19:10,Mon Dec 05 2022 14:19:10 GMT+0100 (Centraleuropæisk normaltid),The main experiment item,yes,0,0,/Users/ethan/Documents/GitHub/OpenSesame/Class2,0,0,0,no,mono,no,18,no,white,no,no,768,1007,3.6.1,psycho,psycho,osweb,1.4.11,1,*****,269,,0,m,space,space,n,m,901,15021,4474,2528,901,2,psycho,733,1280,24,800,24,0,23,1280,1670246417547,1024,2,48000,-16,experiment,1,odd,MacIntel,LOCK,91,91,91,91,60094,85,60705,54878,90,15114,31203,61494,62411,61362,61445,91,61411,61494,ExPsyLing2022_Class2,15,16593,17,yes,1024,4
block4,manmade,exact,TOYS,89,89,965,965,black,no,4,Mozilla,Netscape,"5.0 (Macintosh; Intel Mac OS X 10_13_4) AppleWebKit/537.36 (KHTML, like Gecko) Chrome/107.0.0.0 Safari/537.36",psycho,natural,psycho,psycho,0,uniform,1,1,M,0,0,0,0,17,0,0,17,17,0,0,0,17,17,17,17,0,0,17,17,0,17,05-11-22,05-11-22,14:19:10,Mon Dec 05 2022 14:19:10 GMT+0100 (Centraleuropæisk normaltid),The main experiment item,yes,0,0,/Users/ethan/Documents/GitHub/OpenSesame/Class2,0,0,0,no,mono,no,18,no,white,no,no,768,1007,3.6.1,psycho,psycho,osweb,1.4.11,1,*****,269,,0,m,space,space,n,m,781,15021,4474,2528,781,2,psycho,733,1280,24,800,24,0,23,1280,1670246417547,1024,2,48000,-16,experiment,1,odd,MacIntel,TOYS,91,91,91,91,62412,85,63049,54878,90,15114,31203,63846,64629,63713,63796,91,63761,63846,ExPsyLing2022_Class2,16,17374,18,yes,1024,4
block4,natural,unrelated,BIRDS,89,89,950,950,black,no,4,Mozilla,Netscape,"5.0 (Macintosh; Intel Mac OS X 10_13_4) AppleWebKit/537.36 (KHTML, like Gecko) Chrome/107.0.0.0 Safari/537.36",psycho,natural,psycho,psycho,0,uniform,1,1,N,0,0,0,0,18,0,0,18,18,0,0,0,18,18,18,18,0,0,18,18,0,18,05-11-22,05-11-22,14:19:10,Mon Dec 05 2022 14:19:10 GMT+0100 (Centraleuropæisk normaltid),The main experiment item,yes,0,0,/Users/ethan/Documents/GitHub/OpenSesame/Class2,0,0,0,no,mono,no,18,no,white,no,no,768,1007,3.6.1,psycho,psycho,osweb,1.4.11,1,*****,269,,0,n,space,space,n,n,677,15021,4474,2528,677,2,psycho,733,1280,24,800,24,0,23,1280,1670246417547,1024,2,48000,-16,experiment,1,odd,MacIntel,APPLE,91,91,91,91,64631,85,65232,54878,90,15114,31203,66014,66696,65898,65980,91,65946,66014,ExPsyLing2022_Class2,17,18051,19,yes,1024,5
block4,natural,one_modification,|*ONY,90,90,944,944,black,no,4,Mozilla,Netscape,"5.0 (Macintosh; Intel Mac OS X 10_13_4) AppleWebKit/537.36 (KHTML, like Gecko) Chrome/107.0.0.0 Safari/537.36",psycho,natural,psycho,psycho,0,uniform,1,1,N,0,0,0,0,19,0,0,19,19,0,0,0,19,19,19,19,0,0,19,19,0,19,05-11-22,05-11-22,14:19:10,Mon Dec 05 2022 14:19:10 GMT+0100 (Centraleuropæisk normaltid),The main experiment item,yes,0,0,/Users/ethan/Documents/GitHub/OpenSesame/Class2,0,0,0,no,mono,no,18,no,white,no,no,768,1007,3.6.1,psycho,psycho,osweb,1.4.11,1,*****,269,,0,n,space,space,n,n,826,15021,4474,2528,826,2,psycho,733,1280,24,800,24,0,23,1280,1670246417547,1024,2,48000,-16,experiment,1,odd,MacIntel,PONY,91,91,91,91,66697,85,67287,54878,90,15114,31203,68066,68900,67950,68017,91,67983,68066,ExPsyLing2022_Class2,18,18877,20,yes,1024,4
block4,manmade,exact,PHONE,90,90,929,929,black,no,4,Mozilla,Netscape,"5.0 (Macintosh; Intel Mac OS X 10_13_4) AppleWebKit/537.36 (KHTML, like Gecko) Chrome/107.0.0.0 Safari/537.36",psycho,natural,psycho,psycho,0,uniform,1,1,M,0,0,0,0,20,0,0,20,20,0,0,0,20,20,20,20,0,0,20,20,0,20,05-11-22,05-11-22,14:19:10,Mon Dec 05 2022 14:19:10 GMT+0100 (Centraleuropæisk normaltid),The main experiment item,yes,0,0,/Users/ethan/Documents/GitHub/OpenSesame/Class2,0,0,0,no,mono,no,18,no,white,no,no,768,1007,3.6.1,psycho,psycho,osweb,1.4.11,1,*****,269,,0,m,space,space,n,m,630,15021,4474,2528,630,2,psycho,733,1280,24,800,24,0,23,1280,1670246417547,1024,2,48000,-16,experiment,1,odd,MacIntel,PHONE,91,91,91,91,68901,85,69515,54878,90,15114,31203,70302,70934,70169,70253,91,70218,70302,ExPsyLing2022_Class2,19,19507,21,yes,1024,5
block4,natural,exact,BIRD,86,86,937,937,black,no,4,Mozilla,Netscape,"5.0 (Macintosh; Intel Mac OS X 10_13_4) AppleWebKit/537.36 (KHTML, like Gecko) Chrome/107.0.0.0 Safari/537.36",psycho,natural,psycho,psycho,0,uniform,0,0,N,0,0,0,0,21,0,0,21,21,0,0,0,21,21,21,21,0,0,21,21,0,21,05-11-22,05-11-22,14:19:10,Mon Dec 05 2022 14:19:10 GMT+0100 (Centraleuropæisk normaltid),The main experiment item,yes,0,0,/Users/ethan/Documents/GitHub/OpenSesame/Class2,0,0,0,no,mono,no,18,no,white,no,no,768,1007,3.6.1,psycho,psycho,osweb,1.4.11,1,*****,269,,0,m,space,space,n,m,1116,15021,4474,2528,1116,2,psycho,733,1280,24,800,24,0,23,1280,1670246417547,1024,2,48000,-16,experiment,1,odd,MacIntel,BIRD,91,91,91,91,70935,85,71535,54878,90,15114,31203,72319,73435,72203,72285,91,72252,72319,ExPsyLing2022_Class2,19,20623,22,yes,1024,4
block4,natural,two_modifications,M00N,87,87,977,977,black,no,4,Mozilla,Netscape,"5.0 (Macintosh; Intel Mac OS X 10_13_4) AppleWebKit/537.36 (KHTML, like Gecko) Chrome/107.0.0.0 Safari/537.36",psycho,natural,psycho,psycho,0,uniform,1,1,N,0,0,0,0,22,0,0,22,22,0,0,0,22,22,22,22,0,0,22,22,0,22,05-11-22,05-11-22,14:19:10,Mon Dec 05 2022 14:19:10 GMT+0100 (Centraleuropæisk normaltid),The main experiment item,yes,0,0,/Users/ethan/Documents/GitHub/OpenSesame/Class2,0,0,0,no,mono,no,18,no,white,no,no,768,1007,3.6.1,psycho,psycho,osweb,1.4.11,1,*****,269,,0,n,space,space,n,n,1854,15021,4474,2528,1854,2,psycho,733,1280,24,800,24,0,23,1280,1670246417547,1024,2,48000,-16,experiment,1,odd,MacIntel,MOON,91,91,91,91,70935,85,74043,73437,90,15114,31203,74837,76704,74704,74787,91,74753,74837,ExPsyLing2022_Class2,20,22477,23,yes,1024,4
block4,natural,unrelated,DOOR,88,88,966,966,black,no,4,Mozilla,Netscape,"5.0 (Macintosh; Intel Mac OS X 10_13_4) AppleWebKit/537.36 (KHTML, like Gecko) Chrome/107.0.0.0 Safari/537.36",psycho,natural,psycho,psycho,0,uniform,1,1,N,0,0,0,0,23,0,0,23,23,0,0,0,23,23,23,23,0,0,23,23,0,23,05-11-22,05-11-22,14:19:10,Mon Dec 05 2022 14:19:10 GMT+0100 (Centraleuropæisk normaltid),The main experiment item,yes,0,0,/Users/ethan/Documents/GitHub/OpenSesame/Class2,0,0,0,no,mono,no,18,no,white,no,no,768,1007,3.6.1,psycho,psycho,osweb,1.4.11,1,*****,269,,0,n,space,space,n,n,698,15021,4474,2528,698,2,psycho,733,1280,24,800,24,0,23,1280,1670246417547,1024,2,48000,-16,experiment,1,odd,MacIntel,WOLF,91,91,91,91,76704,85,77316,73437,90,15114,31203,78105,78804,77972,78056,91,78020,78105,ExPsyLing2022_Class2,21,23175,24,yes,1024,4
block4,natural,one_modification,ST0RM,88,88,951,951,black,no,4,Mozilla,Netscape,"5.0 (Macintosh; Intel Mac OS X 10_13_4) AppleWebKit/537.36 (KHTML, like Gecko) Chrome/107.0.0.0 Safari/537.36",psycho,natural,psycho,psycho,0,uniform,1,1,N,0,0,0,0,24,0,0,24,24,0,0,0,24,24,24,24,0,0,24,24,0,24,05-11-22,05-11-22,14:19:10,Mon Dec 05 2022 14:19:10 GMT+0100 (Centraleuropæisk normaltid),The main experiment item,yes,0,0,/Users/ethan/Documents/GitHub/OpenSesame/Class2,0,0,0,no,mono,no,18,no,white,no,no,768,1007,3.6.1,psycho,psycho,osweb,1.4.11,1,*****,269,,0,n,space,space,n,n,605,15021,4474,2528,605,2,psycho,733,1280,24,800,24,0,23,1280,1670246417547,1024,2,48000,-16,experiment,1,odd,MacIntel,STORM,91,91,91,91,78805,85,79417,73437,90,15114,31203,80206,80821,80074,80157,91,80122,80206,ExPsyLing2022_Class2,22,23780,25,yes,1024,4
block4,natural,exact,NUTS,88,88,988,988,black,no,4,Mozilla,Netscape,"5.0 (Macintosh; Intel Mac OS X 10_13_4) AppleWebKit/537.36 (KHTML, like Gecko) Chrome/107.0.0.0 Safari/537.36",psycho,natural,psycho,psycho,0,uniform,1,1,N,0,0,0,0,25,0,0,25,25,0,0,0,25,25,25,25,0,0,25,25,0,25,05-11-22,05-11-22,14:19:10,Mon Dec 05 2022 14:19:10 GMT+0100 (Centraleuropæisk normaltid),The main experiment item,yes,0,0,/Users/ethan/Documents/GitHub/OpenSesame/Class2,0,0,0,no,mono,no,18,no,white,no,no,768,1007,3.6.1,psycho,psycho,osweb,1.4.11,1,*****,269,,0,n,space,space,n,n,1909,15021,4474,2528,1909,2,psycho,733,1280,24,800,24,0,23,1280,1670246417547,1024,2,48000,-16,experiment,1,odd,MacIntel,NUTS,91,91,91,91,80823,85,81432,73437,90,15114,31203,82207,84124,82091,82173,91,82140,82207,ExPsyLing2022_Class2,23,25689,26,yes,1024,4
block4,natural,exact,PLUM,89,89,985,985,black,no,4,Mozilla,Netscape,"5.0 (Macintosh; Intel Mac OS X 10_13_4) AppleWebKit/537.36 (KHTML, like Gecko) Chrome/107.0.0.0 Safari/537.36",psycho,natural,psycho,psycho,0,uniform,1,1,N,0,0,0,0,26,0,0,26,26,0,0,0,26,26,26,26,0,0,26,26,0,26,05-11-22,05-11-22,14:19:10,Mon Dec 05 2022 14:19:10 GMT+0100 (Centraleuropæisk normaltid),The main experiment item,yes,0,0,/Users/ethan/Documents/GitHub/OpenSesame/Class2,0,0,0,no,mono,no,18,no,white,no,no,768,1007,3.6.1,psycho,psycho,osweb,1.4.11,1,*****,269,,0,n,space,space,n,n,918,15021,4474,2528,918,2,psycho,733,1280,24,800,24,0,23,1280,1670246417547,1024,2,48000,-16,experiment,1,odd,MacIntel,PLUM,91,91,91,91,84125,85,84728,73437,90,15114,31203,85526,86459,85392,85477,91,85441,85526,ExPsyLing2022_Class2,24,26607,27,yes,1024,4
block4,manmade,unrelated,APLE,89,89,987,987,black,no,4,Mozilla,Netscape,"5.0 (Macintosh; Intel Mac OS X 10_13_4) AppleWebKit/537.36 (KHTML, like Gecko) Chrome/107.0.0.0 Safari/537.36",psycho,natural,psycho,psycho,0,uniform,1,1,M,0,0,0,0,27,0,0,27,27,0,0,0,27,27,27,27,0,0,27,27,0,27,05-11-22,05-11-22,14:19:10,Mon Dec 05 2022 14:19:10 GMT+0100 (Centraleuropæisk normaltid),The main experiment item,yes,0,0,/Users/ethan/Documents/GitHub/OpenSesame/Class2,0,0,0,no,mono,no,18,no,white,no,no,768,1007,3.6.1,psycho,psycho,osweb,1.4.11,1,*****,269,,0,m,space,space,n,m,1039,15021,4474,2528,1039,2,psycho,733,1280,24,800,24,0,23,1280,1670246417547,1024,2,48000,-16,experiment,1,odd,MacIntel,TOOL,91,91,91,91,86460,85,87060,73437,90,15114,31203,87845,88895,87714,87795,91,87762,87845,ExPsyLing2022_Class2,25,27646,28,yes,1024,4
block4,natural,two_modifications,[R0W,90,90,988,988,black,no,4,Mozilla,Netscape,"5.0 (Macintosh; Intel Mac OS X 10_13_4) AppleWebKit/537.36 (KHTML, like Gecko) Chrome/107.0.0.0 Safari/537.36",psycho,natural,psycho,psycho,0,uniform,1,1,N,0,0,0,0,28,0,0,28,28,0,0,0,28,28,28,28,0,0,28,28,0,28,05-11-22,05-11-22,14:19:10,Mon Dec 05 2022 14:19:10 GMT+0100 (Centraleuropæisk normaltid),The main experiment item,yes,0,0,/Users/ethan/Documents/GitHub/OpenSesame/Class2,0,0,0,no,mono,no,18,no,white,no,no,768,1007,3.6.1,psycho,psycho,osweb,1.4.11,1,*****,269,,0,n,space,space,n,n,1019,15021,4474,2528,1019,2,psycho,733,1280,24,800,24,0,23,1280,1670246417547,1024,2,48000,-16,experiment,1,odd,MacIntel,CROW,91,91,91,91,88897,85,89499,73437,90,15114,31203,90297,91330,90164,90247,91,90213,90297,ExPsyLing2022_Class2,26,28665,29,yes,1024,4
block4,manmade,exact,CANDY,87,87,978,978,black,no,4,Mozilla,Netscape,"5.0 (Macintosh; Intel Mac OS X 10_13_4) AppleWebKit/537.36 (KHTML, like Gecko) Chrome/107.0.0.0 Safari/537.36",psycho,natural,psycho,psycho,0,uniform,0,0,M,0,0,0,0,29,0,0,29,29,0,0,0,29,29,29,29,0,0,29,29,0,29,05-11-22,05-11-22,14:19:10,Mon Dec 05 2022 14:19:10 GMT+0100 (Centraleuropæisk normaltid),The main experiment item,yes,0,0,/Users/ethan/Documents/GitHub/OpenSesame/Class2,0,0,0,no,mono,no,18,no,white,no,no,768,1007,3.6.1,psycho,psycho,osweb,1.4.11,1,*****,269,,0,n,space,space,n,n,681,15021,4474,2528,681,2,psycho,733,1280,24,800,24,0,23,1280,1670246417547,1024,2,48000,-16,experiment,1,odd,MacIntel,CANDY,91,91,91,91,91333,85,91933,73437,90,15114,31203,92731,93413,92598,92681,91,92648,92731,ExPsyLing2022_Class2,26,29346,30,yes,1024,5
block4,manmade,exact,LIST,87,87,994,994,black,no,4,Mozilla,Netscape,"5.0 (Macintosh; Intel Mac OS X 10_13_4) AppleWebKit/537.36 (KHTML, like Gecko) Chrome/107.0.0.0 Safari/537.36",psycho,natural,psycho,psycho,0,uniform,1,1,M,0,0,0,0,30,0,0,30,30,0,0,0,30,30,30,30,0,0,30,30,0,30,05-11-22,05-11-22,14:19:10,Mon Dec 05 2022 14:19:10 GMT+0100 (Centraleuropæisk normaltid),The main experiment item,yes,0,0,/Users/ethan/Documents/GitHub/OpenSesame/Class2,0,0,0,no,mono,no,18,no,white,no,no,768,1007,3.6.1,psycho,psycho,osweb,1.4.11,1,*****,269,,0,m,space,space,n,m,1454,15021,4474,2528,1454,2,psycho,733,1280,24,800,24,0,23,1280,1670246417547,1024,2,48000,-16,experiment,1,odd,MacIntel,LIST,91,91,91,91,91333,85,94019,93414,90,15114,31203,94814,96282,94682,94764,91,94730,94814,ExPsyLing2022_Class2,27,30800,31,yes,1024,4
block4,natural,one_modification,TUN4,88,88,983,983,black,no,4,Mozilla,Netscape,"5.0 (Macintosh; Intel Mac OS X 10_13_4) AppleWebKit/537.36 (KHTML, like Gecko) Chrome/107.0.0.0 Safari/537.36",psycho,natural,psycho,psycho,0,uniform,1,1,N,0,0,0,0,31,0,0,31,31,0,0,0,31,31,31,31,0,0,31,31,0,31,05-11-22,05-11-22,14:19:10,Mon Dec 05 2022 14:19:10 GMT+0100 (Centraleuropæisk normaltid),The main experiment item,yes,0,0,/Users/ethan/Documents/GitHub/OpenSesame/Class2,0,0,0,no,mono,no,18,no,white,no,no,768,1007,3.6.1,psycho,psycho,osweb,1.4.11,1,*****,269,,0,n,space,space,n,n,645,15021,4474,2528,645,2,psycho,733,1280,24,800,24,0,23,1280,1670246417547,1024,2,48000,-16,experiment,1,odd,MacIntel,TUNA,91,91,91,91,96283,85,96889,93414,90,15114,31203,97686,98336,97550,97638,91,97602,97685,ExPsyLing2022_Class2,28,31445,32,yes,1024,4
block4,natural,exact,LAMB,88,88,979,979,black,no,4,Mozilla,Netscape,"5.0 (Macintosh; Intel Mac OS X 10_13_4) AppleWebKit/537.36 (KHTML, like Gecko) Chrome/107.0.0.0 Safari/537.36",psycho,natural,psycho,psycho,0,uniform,1,1,N,0,0,0,0,32,0,0,32,32,0,0,0,32,32,32,32,0,0,32,32,0,32,05-11-22,05-11-22,14:19:10,Mon Dec 05 2022 14:19:10 GMT+0100 (Centraleuropæisk normaltid),The main experiment item,yes,0,0,/Users/ethan/Documents/GitHub/OpenSesame/Class2,0,0,0,no,mono,no,18,no,white,no,no,768,1007,3.6.1,psycho,psycho,osweb,1.4.11,1,*****,269,,0,n,space,space,n,n,858,15021,4474,2528,858,2,psycho,733,1280,24,800,24,0,23,1280,1670246417547,1024,2,48000,-16,experiment,1,odd,MacIntel,LAMB,91,91,91,91,98336,85,98938,93414,90,15114,31203,99737,100604,99604,99688,91,99654,99737,ExPsyLing2022_Class2,29,32303,33,yes,1024,4
block4,natural,unrelated,CHEAT,88,88,984,984,black,no,4,Mozilla,Netscape,"5.0 (Macintosh; Intel Mac OS X 10_13_4) AppleWebKit/537.36 (KHTML, like Gecko) Chrome/107.0.0.0 Safari/537.36",psycho,natural,psycho,psycho,0,uniform,1,1,N,0,0,0,0,33,0,0,33,33,0,0,0,33,33,33,33,0,0,33,33,0,33,05-11-22,05-11-22,14:19:10,Mon Dec 05 2022 14:19:10 GMT+0100 (Centraleuropæisk normaltid),The main experiment item,yes,0,0,/Users/ethan/Documents/GitHub/OpenSesame/Class2,0,0,0,no,mono,no,18,no,white,no,no,768,1007,3.6.1,psycho,psycho,osweb,1.4.11,1,*****,269,,0,n,space,space,n,n,1158,15021,4474,2528,1158,2,psycho,733,1280,24,800,24,0,23,1280,1670246417547,1024,2,48000,-16,experiment,1,odd,MacIntel,CAMEL,91,91,91,91,100605,85,101232,93414,90,15114,31203,102022,103188,101889,101973,91,101938,102022,ExPsyLing2022_Class2,30,33461,34,yes,1024,5
block4,manmade,unrelated,MOOSE,89,89,990,990,black,no,4,Mozilla,Netscape,"5.0 (Macintosh; Intel Mac OS X 10_13_4) AppleWebKit/537.36 (KHTML, like Gecko) Chrome/107.0.0.0 Safari/537.36",psycho,natural,psycho,psycho,0,uniform,1,1,M,0,0,0,0,34,0,0,34,34,0,0,0,34,34,34,34,0,0,34,34,0,34,05-11-22,05-11-22,14:19:10,Mon Dec 05 2022 14:19:10 GMT+0100 (Centraleuropæisk normaltid),The main experiment item,yes,0,0,/Users/ethan/Documents/GitHub/OpenSesame/Class2,0,0,0,no,mono,no,18,no,white,no,no,768,1007,3.6.1,psycho,psycho,osweb,1.4.11,1,*****,269,,0,m,space,space,n,m,1191,15021,4474,2528,1191,2,psycho,733,1280,24,800,24,0,23,1280,1670246417547,1024,2,48000,-16,experiment,1,odd,MacIntel,PAPER,91,91,91,91,103189,85,103789,93414,90,15114,31203,104573,105772,104457,104540,91,104507,104573,ExPsyLing2022_Class2,31,34652,35,yes,1024,5
block4,manmade,unrelated,FLAG,89,89,983,983,black,no,4,Mozilla,Netscape,"5.0 (Macintosh; Intel Mac OS X 10_13_4) AppleWebKit/537.36 (KHTML, like Gecko) Chrome/107.0.0.0 Safari/537.36",psycho,natural,psycho,psycho,0,uniform,1,1,M,0,0,0,0,35,0,0,35,35,0,0,0,35,35,35,35,0,0,35,35,0,35,05-11-22,05-11-22,14:19:10,Mon Dec 05 2022 14:19:10 GMT+0100 (Centraleuropæisk normaltid),The main experiment item,yes,0,0,/Users/ethan/Documents/GitHub/OpenSesame/Class2,0,0,0,no,mono,no,18,no,white,no,no,768,1007,3.6.1,psycho,psycho,osweb,1.4.11,1,*****,269,,0,m,space,space,n,m,725,15021,4474,2528,725,2,psycho,733,1280,24,800,24,0,23,1280,1670246417547,1024,2,48000,-16,experiment,1,odd,MacIntel,CAGE,91,91,91,91,105773,85,106373,93414,90,15114,31203,107174,107906,107040,107125,91,107091,107174,ExPsyLing2022_Class2,32,35377,36,yes,1024,4
block4,natural,one_modification,1EAF,89,89,989,989,black,no,4,Mozilla,Netscape,"5.0 (Macintosh; Intel Mac OS X 10_13_4) AppleWebKit/537.36 (KHTML, like Gecko) Chrome/107.0.0.0 Safari/537.36",psycho,natural,psycho,psycho,0,uniform,1,1,N,0,0,0,0,36,0,0,36,36,0,0,0,36,36,36,36,0,0,36,36,0,36,05-11-22,05-11-22,14:19:10,Mon Dec 05 2022 14:19:10 GMT+0100 (Centraleuropæisk normaltid),The main experiment item,yes,0,0,/Users/ethan/Documents/GitHub/OpenSesame/Class2,0,0,0,no,mono,no,18,no,white,no,no,768,1007,3.6.1,psycho,psycho,osweb,1.4.11,1,*****,269,,0,n,space,space,n,n,1228,15021,4474,2528,1228,2,psycho,733,1280,24,800,24,0,23,1280,1670246417547,1024,2,48000,-16,experiment,1,odd,MacIntel,LEAF,91,91,91,91,107907,85,108496,93414,90,15114,31203,109279,110512,109163,109230,91,109196,109279,ExPsyLing2022_Class2,33,36605,37,yes,1024,4
block4,natural,two_modifications,SH33P,89,89,1005,1005,black,no,4,Mozilla,Netscape,"5.0 (Macintosh; Intel Mac OS X 10_13_4) AppleWebKit/537.36 (KHTML, like Gecko) Chrome/107.0.0.0 Safari/537.36",psycho,natural,psycho,psycho,0,uniform,1,1,N,0,0,0,0,37,0,0,37,37,0,0,0,37,37,37,37,0,0,37,37,0,37,05-11-22,05-11-22,14:19:10,Mon Dec 05 2022 14:19:10 GMT+0100 (Centraleuropæisk normaltid),The main experiment item,yes,0,0,/Users/ethan/Documents/GitHub/OpenSesame/Class2,0,0,0,no,mono,no,18,no,white,no,no,768,1007,3.6.1,psycho,psycho,osweb,1.4.11,1,*****,269,,0,n,space,space,n,n,1578,15021,4474,2528,1578,2,psycho,733,1280,24,800,24,0,23,1280,1670246417547,1024,2,48000,-16,experiment,1,odd,MacIntel,SHEEP,91,91,91,91,110513,85,111114,93414,90,15114,31203,111898,113480,111781,111864,91,111830,111898,ExPsyLing2022_Class2,34,38183,38,yes,1024,5
block4,manmade,two_modifications,13O0K,90,90,1013,1013,black,no,4,Mozilla,Netscape,"5.0 (Macintosh; Intel Mac OS X 10_13_4) AppleWebKit/537.36 (KHTML, like Gecko) Chrome/107.0.0.0 Safari/537.36",psycho,natural,psycho,psycho,0,uniform,1,1,M,0,0,0,0,38,0,0,38,38,0,0,0,38,38,38,38,0,0,38,38,0,38,05-11-22,05-11-22,14:19:10,Mon Dec 05 2022 14:19:10 GMT+0100 (Centraleuropæisk normaltid),The main experiment item,yes,0,0,/Users/ethan/Documents/GitHub/OpenSesame/Class2,0,0,0,no,mono,no,18,no,white,no,no,768,1007,3.6.1,psycho,psycho,osweb,1.4.11,1,*****,269,,0,m,space,space,n,m,1314,15021,4474,2528,1314,2,psycho,733,1280,24,800,24,0,23,1280,1670246417547,1024,2,48000,-16,experiment,1,odd,MacIntel,BOOK,91,91,91,91,113481,85,114081,93414,90,15114,31203,114882,116197,114749,114833,91,114798,114882,ExPsyLing2022_Class2,35,39497,39,yes,1024,4
block4,manmade,exact,WALL,90,90,1006,1006,black,no,4,Mozilla,Netscape,"5.0 (Macintosh; Intel Mac OS X 10_13_4) AppleWebKit/537.36 (KHTML, like Gecko) Chrome/107.0.0.0 Safari/537.36",psycho,natural,psycho,psycho,0,uniform,1,1,M,0,0,0,0,39,0,0,39,39,0,0,0,39,39,39,39,0,0,39,39,0,39,05-11-22,05-11-22,14:19:10,Mon Dec 05 2022 14:19:10 GMT+0100 (Centraleuropæisk normaltid),The main experiment item,yes,0,0,/Users/ethan/Documents/GitHub/OpenSesame/Class2,0,0,0,no,mono,no,18,no,white,no,no,768,1007,3.6.1,psycho,psycho,osweb,1.4.11,1,*****,269,,0,m,space,space,n,m,756,15021,4474,2528,756,2,psycho,733,1280,24,800,24,0,23,1280,1670246417547,1024,2,48000,-16,experiment,1,odd,MacIntel,WALL,91,91,91,91,116198,85,116801,93414,90,15114,31203,117600,118366,117468,117550,91,117517,117600,ExPsyLing2022_Class2,36,40253,40,yes,1024,4
block4,manmade,one_modification,I3ALL,90,90,1002,1002,black,no,4,Mozilla,Netscape,"5.0 (Macintosh; Intel Mac OS X 10_13_4) AppleWebKit/537.36 (KHTML, like Gecko) Chrome/107.0.0.0 Safari/537.36",psycho,natural,psycho,psycho,0,uniform,1,1,M,0,0,0,0,40,0,0,40,40,0,0,0,40,40,40,40,0,0,40,40,0,40,05-11-22,05-11-22,14:19:10,Mon Dec 05 2022 14:19:10 GMT+0100 (Centraleuropæisk normaltid),The main experiment item,yes,0,0,/Users/ethan/Documents/GitHub/OpenSesame/Class2,0,0,0,no,mono,no,18,no,white,no,no,768,1007,3.6.1,psycho,psycho,osweb,1.4.11,1,*****,269,,0,m,space,space,n,m,819,15021,4474,2528,819,2,psycho,733,1280,24,800,24,0,23,1280,1670246417547,1024,2,48000,-16,experiment,1,odd,MacIntel,BALL,91,91,91,91,118367,85,118955,93414,90,15114,31203,119753,120585,119620,119703,91,119670,119753,ExPsyLing2022_Class2,37,41072,41,yes,1024,4
block4,manmade,two_modifications,C04T,90,90,1001,1001,black,no,4,Mozilla,Netscape,"5.0 (Macintosh; Intel Mac OS X 10_13_4) AppleWebKit/537.36 (KHTML, like Gecko) Chrome/107.0.0.0 Safari/537.36",psycho,natural,psycho,psycho,0,uniform,1,1,M,0,0,0,0,41,0,0,41,41,0,0,0,41,41,41,41,0,0,41,41,0,41,05-11-22,05-11-22,14:19:10,Mon Dec 05 2022 14:19:10 GMT+0100 (Centraleuropæisk normaltid),The main experiment item,yes,0,0,/Users/ethan/Documents/GitHub/OpenSesame/Class2,0,0,0,no,mono,no,18,no,white,no,no,768,1007,3.6.1,psycho,psycho,osweb,1.4.11,1,*****,269,,0,m,space,space,n,m,960,15021,4474,2528,960,2,psycho,733,1280,24,800,24,0,23,1280,1670246417547,1024,2,48000,-16,experiment,1,odd,MacIntel,COAT,91,91,91,91,120586,85,121191,93414,90,15114,31203,121987,122953,121854,121937,91,121903,121987,ExPsyLing2022_Class2,38,42032,42,yes,1024,4
block4,natural,unrelated,WATER,88,88,996,996,black,no,4,Mozilla,Netscape,"5.0 (Macintosh; Intel Mac OS X 10_13_4) AppleWebKit/537.36 (KHTML, like Gecko) Chrome/107.0.0.0 Safari/537.36",psycho,natural,psycho,psycho,0,uniform,0,0,N,0,0,0,0,42,0,0,42,42,0,0,0,42,42,42,42,0,0,42,42,0,42,05-11-22,05-11-22,14:19:10,Mon Dec 05 2022 14:19:10 GMT+0100 (Centraleuropæisk normaltid),The main experiment item,yes,0,0,/Users/ethan/Documents/GitHub/OpenSesame/Class2,0,0,0,no,mono,no,18,no,white,no,no,768,1007,3.6.1,psycho,psycho,osweb,1.4.11,1,*****,269,,0,m,space,space,n,m,817,15021,4474,2528,817,2,psycho,733,1280,24,800,24,0,23,1280,1670246417547,1024,2,48000,-16,experiment,1,odd,MacIntel,STONE,91,91,91,91,122954,85,123558,93414,90,15114,31203,124339,125171,124222,124305,91,124272,124339,ExPsyLing2022_Class2,38,42849,43,yes,1024,5
block4,manmade,two_modifications,I3RE4D,86,86,994,994,black,no,4,Mozilla,Netscape,"5.0 (Macintosh; Intel Mac OS X 10_13_4) AppleWebKit/537.36 (KHTML, like Gecko) Chrome/107.0.0.0 Safari/537.36",psycho,natural,psycho,psycho,0,uniform,0,0,M,0,0,0,0,43,0,0,43,43,0,0,0,43,43,43,43,0,0,43,43,0,43,05-11-22,05-11-22,14:19:10,Mon Dec 05 2022 14:19:10 GMT+0100 (Centraleuropæisk normaltid),The main experiment item,yes,0,0,/Users/ethan/Documents/GitHub/OpenSesame/Class2,0,0,0,no,mono,no,18,no,white,no,no,768,1007,3.6.1,psycho,psycho,osweb,1.4.11,1,*****,269,,0,n,space,space,n,n,896,15021,4474,2528,896,2,psycho,733,1280,24,800,24,0,23,1280,1670246417547,1024,2,48000,-16,experiment,1,odd,MacIntel,BREAD,91,91,91,91,122954,85,125770,125172,90,15114,31203,126540,127438,126423,126506,91,126472,126540,ExPsyLing2022_Class2,38,43745,44,yes,1024,5
block4,manmade,one_modification,)ESK,87,87,991,991,black,no,4,Mozilla,Netscape,"5.0 (Macintosh; Intel Mac OS X 10_13_4) AppleWebKit/537.36 (KHTML, like Gecko) Chrome/107.0.0.0 Safari/537.36",psycho,natural,psycho,psycho,0,uniform,1,1,M,0,0,0,0,44,0,0,44,44,0,0,0,44,44,44,44,0,0,44,44,0,44,05-11-22,05-11-22,14:19:10,Mon Dec 05 2022 14:19:10 GMT+0100 (Centraleuropæisk normaltid),The main experiment item,yes,0,0,/Users/ethan/Documents/GitHub/OpenSesame/Class2,0,0,0,no,mono,no,18,no,white,no,no,768,1007,3.6.1,psycho,psycho,osweb,1.4.11,1,*****,269,,0,m,space,space,n,m,863,15021,4474,2528,863,2,psycho,733,1280,24,800,24,0,23,1280,1670246417547,1024,2,48000,-16,experiment,1,odd,MacIntel,DESK,91,91,91,91,122954,85,128045,127439,90,15114,31203,128830,129695,128707,128781,91,128746,128830,ExPsyLing2022_Class2,39,44608,45,yes,1024,4
block4,natural,exact,TIGER,87,87,984,984,black,no,4,Mozilla,Netscape,"5.0 (Macintosh; Intel Mac OS X 10_13_4) AppleWebKit/537.36 (KHTML, like Gecko) Chrome/107.0.0.0 Safari/537.36",psycho,natural,psycho,psycho,0,uniform,1,1,N,0,0,0,0,45,0,0,45,45,0,0,0,45,45,45,45,0,0,45,45,0,45,05-11-22,05-11-22,14:19:10,Mon Dec 05 2022 14:19:10 GMT+0100 (Centraleuropæisk normaltid),The main experiment item,yes,0,0,/Users/ethan/Documents/GitHub/OpenSesame/Class2,0,0,0,no,mono,no,18,no,white,no,no,768,1007,3.6.1,psycho,psycho,osweb,1.4.11,1,*****,269,,0,n,space,space,n,n,673,15021,4474,2528,673,2,psycho,733,1280,24,800,24,0,23,1280,1670246417547,1024,2,48000,-16,experiment,1,odd,MacIntel,TIGER,91,91,91,91,129696,85,130297,127439,90,15114,31203,131098,131781,130965,131049,91,131013,131098,ExPsyLing2022_Class2,40,45281,46,yes,1024,5
block4,manmade,one_modification,|*AGE,87,87,980,980,black,no,4,Mozilla,Netscape,"5.0 (Macintosh; Intel Mac OS X 10_13_4) AppleWebKit/537.36 (KHTML, like Gecko) Chrome/107.0.0.0 Safari/537.36",psycho,natural,psycho,psycho,0,uniform,1,1,M,0,0,0,0,46,0,0,46,46,0,0,0,46,46,46,46,0,0,46,46,0,46,05-11-22,05-11-22,14:19:10,Mon Dec 05 2022 14:19:10 GMT+0100 (Centraleuropæisk normaltid),The main experiment item,yes,0,0,/Users/ethan/Documents/GitHub/OpenSesame/Class2,0,0,0,no,mono,no,18,no,white,no,no,768,1007,3.6.1,psycho,psycho,osweb,1.4.11,1,*****,269,,0,m,space,space,n,m,798,15021,4474,2528,798,2,psycho,733,1280,24,800,24,0,23,1280,1670246417547,1024,2,48000,-16,experiment,1,odd,MacIntel,PAGE,91,91,91,91,131782,85,132382,127439,90,15114,31203,133182,133980,133049,133132,91,133098,133182,ExPsyLing2022_Class2,41,46079,47,yes,1024,4
block4,natural,exact,WATER,88,88,972,972,black,no,4,Mozilla,Netscape,"5.0 (Macintosh; Intel Mac OS X 10_13_4) AppleWebKit/537.36 (KHTML, like Gecko) Chrome/107.0.0.0 Safari/537.36",psycho,natural,psycho,psycho,0,uniform,1,1,N,0,0,0,0,47,0,0,47,47,0,0,0,47,47,47,47,0,0,47,47,0,47,05-11-22,05-11-22,14:19:10,Mon Dec 05 2022 14:19:10 GMT+0100 (Centraleuropæisk normaltid),The main experiment item,yes,0,0,/Users/ethan/Documents/GitHub/OpenSesame/Class2,0,0,0,no,mono,no,18,no,white,no,no,768,1007,3.6.1,psycho,psycho,osweb,1.4.11,1,*****,269,,0,n,space,space,n,n,597,15021,4474,2528,597,2,psycho,733,1280,24,800,24,0,23,1280,1670246417547,1024,2,48000,-16,experiment,1,odd,MacIntel,WATER,91,91,91,91,133982,85,134585,127439,90,15114,31203,135383,135982,135251,135334,91,135299,135383,ExPsyLing2022_Class2,42,46676,48,yes,1024,5
block4,natural,one_modification,R4IN,88,88,970,970,black,no,4,Mozilla,Netscape,"5.0 (Macintosh; Intel Mac OS X 10_13_4) AppleWebKit/537.36 (KHTML, like Gecko) Chrome/107.0.0.0 Safari/537.36",psycho,natural,psycho,psycho,0,uniform,1,1,N,0,0,0,0,48,0,0,48,48,0,0,0,48,48,48,48,0,0,48,48,0,48,05-11-22,05-11-22,14:19:10,Mon Dec 05 2022 14:19:10 GMT+0100 (Centraleuropæisk normaltid),The main experiment item,yes,0,0,/Users/ethan/Documents/GitHub/OpenSesame/Class2,0,0,0,no,mono,no,18,no,white,no,no,768,1007,3.6.1,psycho,psycho,osweb,1.4.11,1,*****,269,,0,n,space,space,n,n,835,15021,4474,2528,835,2,psycho,733,1280,24,800,24,0,23,1280,1670246417547,1024,2,48000,-16,experiment,1,odd,MacIntel,RAIN,91,91,91,91,135983,85,136584,127439,90,15114,31203,137384,138233,137251,137335,91,137301,137384,ExPsyLing2022_Class2,43,47511,49,yes,1024,4
block4,manmade,one_modification,TR(_)CK,88,88,966,966,black,no,4,Mozilla,Netscape,"5.0 (Macintosh; Intel Mac OS X 10_13_4) AppleWebKit/537.36 (KHTML, like Gecko) Chrome/107.0.0.0 Safari/537.36",psycho,natural,psycho,psycho,0,uniform,1,1,M,0,0,0,0,49,0,0,49,49,0,0,0,49,49,49,49,0,0,49,49,0,49,05-11-22,05-11-22,14:19:10,Mon Dec 05 2022 14:19:10 GMT+0100 (Centraleuropæisk normaltid),The main experiment item,yes,0,0,/Users/ethan/Documents/GitHub/OpenSesame/Class2,0,0,0,no,mono,no,18,no,white,no,no,768,1007,3.6.1,psycho,psycho,osweb,1.4.11,1,*****,269,,0,m,space,space,n,m,793,15021,4474,2528,793,2,psycho,733,1280,24,800,24,0,23,1280,1670246417547,1024,2,48000,-16,experiment,1,odd,MacIntel,TRUCK,91,91,91,91,138234,85,138836,127439,90,15114,31203,139627,140426,139494,139577,91,139544,139627,ExPsyLing2022_Class2,44,48304,50,yes,1024,5
block4,manmade,one_modification,\\/ASE,88,88,970,970,black,no,4,Mozilla,Netscape,"5.0 (Macintosh; Intel Mac OS X 10_13_4) AppleWebKit/537.36 (KHTML, like Gecko) Chrome/107.0.0.0 Safari/537.36",psycho,natural,psycho,psycho,0,uniform,1,1,M,0,0,0,0,50,0,0,50,50,0,0,0,50,50,50,50,0,0,50,50,0,50,05-11-22,05-11-22,14:19:10,Mon Dec 05 2022 14:19:10 GMT+0100 (Centraleuropæisk normaltid),The main experiment item,yes,0,0,/Users/ethan/Documents/GitHub/OpenSesame/Class2,0,0,0,no,mono,no,18,no,white,no,no,768,1007,3.6.1,psycho,psycho,osweb,1.4.11,1,*****,269,,0,m,space,space,n,m,1144,15021,4474,2528,1144,2,psycho,733,1280,24,800,24,0,23,1280,1670246417547,1024,2,48000,-16,experiment,1,odd,MacIntel,VASE,91,91,91,91,140427,85,141063,127439,90,15114,31203,141844,142994,141728,141795,91,141761,141844,ExPsyLing2022_Class2,45,49448,51,yes,1024,4
block4,manmade,one_modification,MA1L,88,88,976,976,black,no,4,Mozilla,Netscape,"5.0 (Macintosh; Intel Mac OS X 10_13_4) AppleWebKit/537.36 (KHTML, like Gecko) Chrome/107.0.0.0 Safari/537.36",psycho,natural,psycho,psycho,0,uniform,1,1,M,0,0,0,0,51,0,0,51,51,0,0,0,51,51,51,51,0,0,51,51,0,51,05-11-22,05-11-22,14:19:10,Mon Dec 05 2022 14:19:10 GMT+0100 (Centraleuropæisk normaltid),The main experiment item,yes,0,0,/Users/ethan/Documents/GitHub/OpenSesame/Class2,0,0,0,no,mono,no,18,no,white,no,no,768,1007,3.6.1,psycho,psycho,osweb,1.4.11,1,*****,269,,0,m,space,space,n,m,1321,15021,4474,2528,1321,2,psycho,733,1280,24,800,24,0,23,1280,1670246417547,1024,2,48000,-16,experiment,1,odd,MacIntel,MAIL,91,91,91,91,142995,85,143595,127439,90,15114,31203,144395,145729,144263,144346,91,144312,144395,ExPsyLing2022_Class2,46,50769,52,yes,1024,4
block4,manmade,unrelated,TYRE,89,89,984,984,black,no,4,Mozilla,Netscape,"5.0 (Macintosh; Intel Mac OS X 10_13_4) AppleWebKit/537.36 (KHTML, like Gecko) Chrome/107.0.0.0 Safari/537.36",psycho,natural,psycho,psycho,0,uniform,1,1,M,0,0,0,0,52,0,0,52,52,0,0,0,52,52,52,52,0,0,52,52,0,52,05-11-22,05-11-22,14:19:10,Mon Dec 05 2022 14:19:10 GMT+0100 (Centraleuropæisk normaltid),The main experiment item,yes,0,0,/Users/ethan/Documents/GitHub/OpenSesame/Class2,0,0,0,no,mono,no,18,no,white,no,no,768,1007,3.6.1,psycho,psycho,osweb,1.4.11,1,*****,269,,0,m,space,space,n,m,1386,15021,4474,2528,1386,2,psycho,733,1280,24,800,24,0,23,1280,1670246417547,1024,2,48000,-16,experiment,1,odd,MacIntel,SINK,91,91,91,91,145729,85,146329,127439,90,15114,31203,147130,148529,146998,147081,91,147046,147130,ExPsyLing2022_Class2,47,52155,53,yes,1024,4
block4,manmade,one_modification,|*IZZA,89,89,984,984,black,no,4,Mozilla,Netscape,"5.0 (Macintosh; Intel Mac OS X 10_13_4) AppleWebKit/537.36 (KHTML, like Gecko) Chrome/107.0.0.0 Safari/537.36",psycho,natural,psycho,psycho,0,uniform,1,1,M,0,0,0,0,53,0,0,53,53,0,0,0,53,53,53,53,0,0,53,53,0,53,05-11-22,05-11-22,14:19:10,Mon Dec 05 2022 14:19:10 GMT+0100 (Centraleuropæisk normaltid),The main experiment item,yes,0,0,/Users/ethan/Documents/GitHub/OpenSesame/Class2,0,0,0,no,mono,no,18,no,white,no,no,768,1007,3.6.1,psycho,psycho,osweb,1.4.11,1,*****,269,,0,m,space,space,n,m,971,15021,4474,2528,971,2,psycho,733,1280,24,800,24,0,23,1280,1670246417547,1024,2,48000,-16,experiment,1,odd,MacIntel,PIZZA,91,91,91,91,148530,85,149146,127439,90,15114,31203,149921,150904,149805,149873,91,149838,149921,ExPsyLing2022_Class2,48,53126,54,yes,1024,5
block4,manmade,unrelated,FROG,89,89,994,994,black,no,4,Mozilla,Netscape,"5.0 (Macintosh; Intel Mac OS X 10_13_4) AppleWebKit/537.36 (KHTML, like Gecko) Chrome/107.0.0.0 Safari/537.36",psycho,natural,psycho,psycho,0,uniform,1,1,M,0,0,0,0,54,0,0,54,54,0,0,0,54,54,54,54,0,0,54,54,0,54,05-11-22,05-11-22,14:19:10,Mon Dec 05 2022 14:19:10 GMT+0100 (Centraleuropæisk normaltid),The main experiment item,yes,0,0,/Users/ethan/Documents/GitHub/OpenSesame/Class2,0,0,0,no,mono,no,18,no,white,no,no,768,1007,3.6.1,psycho,psycho,osweb,1.4.11,1,*****,269,,0,m,space,space,n,m,1545,15021,4474,2528,1545,2,psycho,733,1280,24,800,24,0,23,1280,1670246417547,1024,2,48000,-16,experiment,1,odd,MacIntel,LAMP,91,91,91,91,150905,85,151519,127439,90,15114,31203,152306,153856,152174,152257,91,152223,152306,ExPsyLing2022_Class2,49,54671,55,yes,1024,4
block4,manmade,two_modifications,S#0E,89,89,1009,1009,black,no,4,Mozilla,Netscape,"5.0 (Macintosh; Intel Mac OS X 10_13_4) AppleWebKit/537.36 (KHTML, like Gecko) Chrome/107.0.0.0 Safari/537.36",psycho,natural,psycho,psycho,0,uniform,1,1,M,0,0,0,0,55,0,0,55,55,0,0,0,55,55,55,55,0,0,55,55,0,55,05-11-22,05-11-22,14:19:10,Mon Dec 05 2022 14:19:10 GMT+0100 (Centraleuropæisk normaltid),The main experiment item,yes,0,0,/Users/ethan/Documents/GitHub/OpenSesame/Class2,0,0,0,no,mono,no,18,no,white,no,no,768,1007,3.6.1,psycho,psycho,osweb,1.4.11,1,*****,269,,0,m,space,space,n,m,1834,15021,4474,2528,1834,2,psycho,733,1280,24,800,24,0,23,1280,1670246417547,1024,2,48000,-16,experiment,1,odd,MacIntel,SHOE,91,91,91,91,153857,85,154458,127439,90,15114,31203,155257,157107,155124,155209,91,155173,155257,ExPsyLing2022_Class2,50,56505,56,yes,1024,4
practice,,practice,,100,100,1495,1495,black,no,4,Mozilla,Netscape,"5.0 (Macintosh; Intel Mac OS X 10_15_7) AppleWebKit/537.36 (KHTML, like Gecko) Chrome/107.0.0.0 Safari/537.36",psycho,natural,psycho,psycho,0,uniform,1,1,N,0,0,0,0,0,0,0,0,0,0,0,0,0,0,0,0,0,0,0,0,0,0,05-11-22,05-11-22,12:44:20,Mon Dec 05 2022 12:44:20 GMT+0100 (Centraleuropæisk normaltid),The main experiment item,yes,0,0,/Users/ethan/Documents/GitHub/OpenSesame/Class2,0,0,0,no,mono,no,18,no,white,no,no,768,1006,3.6.1,psycho,psycho,osweb,1.4.11,1,*****,269,,0,n,space,space,,n,1495,13550,5264,,1495,2,psycho,900,1440,24,900,24,0,0,1440,1670238334814,1024,2,48000,-16,experiment,0,even,MacIntel,VINE,54,54,54,54,,48,18994,,53,13607,,19784,21282,19651,19734,54,19700,19783,ExPsyLing2022_Class2,1,1495,1,yes,1024,4
practice,,practice,,100,100,1266,1266,black,no,4,Mozilla,Netscape,"5.0 (Macintosh; Intel Mac OS X 10_15_7) AppleWebKit/537.36 (KHTML, like Gecko) Chrome/107.0.0.0 Safari/537.36",psycho,manmade,psycho,psycho,0,uniform,1,1,M,0,0,0,0,1,0,0,1,1,0,0,0,1,1,1,1,0,0,1,1,0,1,05-11-22,05-11-22,12:44:20,Mon Dec 05 2022 12:44:20 GMT+0100 (Centraleuropæisk normaltid),The main experiment item,yes,0,0,/Users/ethan/Documents/GitHub/OpenSesame/Class2,0,0,0,no,mono,no,18,no,white,no,no,768,1006,3.6.1,psycho,psycho,osweb,1.4.11,1,*****,269,,0,m,space,space,,m,1036,13550,5264,,1036,2,psycho,900,1440,24,900,24,0,0,1440,1670238334814,1024,2,48000,-16,experiment,0,even,MacIntel,BOAT,54,54,54,54,21285,48,21878,,53,13607,,22667,23717,22535,22618,54,22584,22667,ExPsyLing2022_Class2,2,2531,2,yes,1024,4
practice,,practice,,67,67,1155,1155,black,no,4,Mozilla,Netscape,"5.0 (Macintosh; Intel Mac OS X 10_15_7) AppleWebKit/537.36 (KHTML, like Gecko) Chrome/107.0.0.0 Safari/537.36",psycho,manmade,psycho,psycho,0,uniform,0,0,M,0,0,0,0,2,0,0,2,2,0,0,0,2,2,2,2,0,0,2,2,0,2,05-11-22,05-11-22,12:44:20,Mon Dec 05 2022 12:44:20 GMT+0100 (Centraleuropæisk normaltid),The main experiment item,yes,0,0,/Users/ethan/Documents/GitHub/OpenSesame/Class2,0,0,0,no,mono,no,18,no,white,no,no,768,1006,3.6.1,psycho,psycho,osweb,1.4.11,1,*****,269,,0,n,space,space,,n,935,13550,5264,,935,2,psycho,900,1440,24,900,24,0,0,1440,1670238334814,1024,2,48000,-16,experiment,0,even,MacIntel,STAIRS,54,54,54,54,23718,48,24314,,53,13607,,25101,26051,24968,25052,54,25017,25101,ExPsyLing2022_Class2,2,3466,3,yes,1024,6
practice,,practice,,75,75,1090,1090,black,no,4,Mozilla,Netscape,"5.0 (Macintosh; Intel Mac OS X 10_15_7) AppleWebKit/537.36 (KHTML, like Gecko) Chrome/107.0.0.0 Safari/537.36",psycho,natural,psycho,psycho,0,uniform,1,1,N,0,0,0,0,3,0,0,3,3,0,0,0,3,3,3,3,0,0,3,3,0,3,05-11-22,05-11-22,12:44:20,Mon Dec 05 2022 12:44:20 GMT+0100 (Centraleuropæisk normaltid),The main experiment item,yes,0,0,/Users/ethan/Documents/GitHub/OpenSesame/Class2,0,0,0,no,mono,no,18,no,white,no,no,768,1006,3.6.1,psycho,psycho,osweb,1.4.11,1,*****,269,,0,n,space,space,,n,892,13550,5264,,892,2,psycho,900,1440,24,900,24,0,0,1440,1670238334814,1024,2,48000,-16,experiment,0,even,MacIntel,ZEBRA,54,54,54,54,23718,48,26648,26052,53,13607,,27434,28333,27302,27385,54,27351,27434,ExPsyLing2022_Class2,3,4358,4,yes,1024,5
block4,manmade,unrelated,MOOSE,80,80,1190,1190,black,no,4,Mozilla,Netscape,"5.0 (Macintosh; Intel Mac OS X 10_15_7) AppleWebKit/537.36 (KHTML, like Gecko) Chrome/107.0.0.0 Safari/537.36",psycho,natural,psycho,psycho,0,uniform,1,1,M,0,0,0,0,4,0,0,4,4,0,0,0,4,4,4,4,0,0,4,4,0,4,05-11-22,05-11-22,12:44:20,Mon Dec 05 2022 12:44:20 GMT+0100 (Centraleuropæisk normaltid),The main experiment item,yes,0,0,/Users/ethan/Documents/GitHub/OpenSesame/Class2,0,0,0,no,mono,no,18,no,white,no,no,768,1006,3.6.1,psycho,psycho,osweb,1.4.11,1,*****,269,,0,m,space,space,space,m,1591,13550,5264,4250,1591,2,psycho,900,1440,24,900,24,0,0,1440,1670238334814,1024,2,48000,-16,experiment,0,even,MacIntel,PAPER,54,54,54,54,28334,48,33196,26052,53,13607,28852,33985,35584,33852,33936,54,33902,33985,ExPsyLing2022_Class2,4,5949,5,yes,1024,5
block4,manmade,exact,LIST,83,83,1126,1126,black,no,4,Mozilla,Netscape,"5.0 (Macintosh; Intel Mac OS X 10_15_7) AppleWebKit/537.36 (KHTML, like Gecko) Chrome/107.0.0.0 Safari/537.36",psycho,natural,psycho,psycho,0,uniform,1,1,M,0,0,0,0,5,0,0,5,5,0,0,0,5,5,5,5,0,0,5,5,0,5,05-11-22,05-11-22,12:44:20,Mon Dec 05 2022 12:44:20 GMT+0100 (Centraleuropæisk normaltid),The main experiment item,yes,0,0,/Users/ethan/Documents/GitHub/OpenSesame/Class2,0,0,0,no,mono,no,18,no,white,no,no,768,1006,3.6.1,psycho,psycho,osweb,1.4.11,1,*****,269,,0,m,space,space,space,m,805,13550,5264,4250,805,2,psycho,900,1440,24,900,24,0,0,1440,1670238334814,1024,2,48000,-16,experiment,0,even,MacIntel,LIST,54,54,54,54,35585,48,36181,26052,53,13607,28852,36968,37783,36835,36919,54,36885,36968,ExPsyLing2022_Class2,5,6754,6,yes,1024,4
block4,natural,exact,CATS,86,86,1059,1059,black,no,4,Mozilla,Netscape,"5.0 (Macintosh; Intel Mac OS X 10_15_7) AppleWebKit/537.36 (KHTML, like Gecko) Chrome/107.0.0.0 Safari/537.36",psycho,natural,psycho,psycho,0,uniform,1,1,N,0,0,0,0,6,0,0,6,6,0,0,0,6,6,6,6,0,0,6,6,0,6,05-11-22,05-11-22,12:44:20,Mon Dec 05 2022 12:44:20 GMT+0100 (Centraleuropæisk normaltid),The main experiment item,yes,0,0,/Users/ethan/Documents/GitHub/OpenSesame/Class2,0,0,0,no,mono,no,18,no,white,no,no,768,1006,3.6.1,psycho,psycho,osweb,1.4.11,1,*****,269,,0,n,space,space,space,n,661,13550,5264,4250,661,2,psycho,900,1440,24,900,24,0,0,1440,1670238334814,1024,2,48000,-16,experiment,0,even,MacIntel,CATS,54,54,54,54,37784,48,38381,26052,53,13607,28852,39135,39800,39035,39101,54,39068,39135,ExPsyLing2022_Class2,6,7415,7,yes,1024,4
block4,natural,one_modification,1EAF,88,88,1007,1007,black,no,4,Mozilla,Netscape,"5.0 (Macintosh; Intel Mac OS X 10_15_7) AppleWebKit/537.36 (KHTML, like Gecko) Chrome/107.0.0.0 Safari/537.36",psycho,natural,psycho,psycho,0,uniform,1,1,N,0,0,0,0,7,0,0,7,7,0,0,0,7,7,7,7,0,0,7,7,0,7,05-11-22,05-11-22,12:44:20,Mon Dec 05 2022 12:44:20 GMT+0100 (Centraleuropæisk normaltid),The main experiment item,yes,0,0,/Users/ethan/Documents/GitHub/OpenSesame/Class2,0,0,0,no,mono,no,18,no,white,no,no,768,1006,3.6.1,psycho,psycho,osweb,1.4.11,1,*****,269,,0,n,space,space,space,n,643,13550,5264,4250,643,2,psycho,900,1440,24,900,24,0,0,1440,1670238334814,1024,2,48000,-16,experiment,0,even,MacIntel,LEAF,54,54,54,54,39801,48,40400,26052,53,13607,28852,41168,41817,41052,41134,54,41101,41168,ExPsyLing2022_Class2,7,8058,8,yes,1024,4
block4,manmade,one_modification,|*IZZA,89,89,960,960,black,no,4,Mozilla,Netscape,"5.0 (Macintosh; Intel Mac OS X 10_15_7) AppleWebKit/537.36 (KHTML, like Gecko) Chrome/107.0.0.0 Safari/537.36",psycho,natural,psycho,psycho,0,uniform,1,1,M,0,0,0,0,8,0,0,8,8,0,0,0,8,8,8,8,0,0,8,8,0,8,05-11-22,05-11-22,12:44:20,Mon Dec 05 2022 12:44:20 GMT+0100 (Centraleuropæisk normaltid),The main experiment item,yes,0,0,/Users/ethan/Documents/GitHub/OpenSesame/Class2,0,0,0,no,mono,no,18,no,white,no,no,768,1006,3.6.1,psycho,psycho,osweb,1.4.11,1,*****,269,,0,m,space,space,space,m,578,13550,5264,4250,578,2,psycho,900,1440,24,900,24,0,0,1440,1670238334814,1024,2,48000,-16,experiment,0,even,MacIntel,PIZZA,54,54,54,54,41818,48,42414,26052,53,13607,28852,43201,43784,43069,43152,54,43118,43201,ExPsyLing2022_Class2,8,8636,9,yes,1024,5
block4,natural,exact,NUTS,90,90,956,956,black,no,4,Mozilla,Netscape,"5.0 (Macintosh; Intel Mac OS X 10_15_7) AppleWebKit/537.36 (KHTML, like Gecko) Chrome/107.0.0.0 Safari/537.36",psycho,natural,psycho,psycho,0,uniform,1,1,N,0,0,0,0,9,0,0,9,9,0,0,0,9,9,9,9,0,0,9,9,0,9,05-11-22,05-11-22,12:44:20,Mon Dec 05 2022 12:44:20 GMT+0100 (Centraleuropæisk normaltid),The main experiment item,yes,0,0,/Users/ethan/Documents/GitHub/OpenSesame/Class2,0,0,0,no,mono,no,18,no,white,no,no,768,1006,3.6.1,psycho,psycho,osweb,1.4.11,1,*****,269,,0,n,space,space,space,n,923,13550,5264,4250,923,2,psycho,900,1440,24,900,24,0,0,1440,1670238334814,1024,2,48000,-16,experiment,0,even,MacIntel,NUTS,54,54,54,54,43786,48,44380,26052,53,13607,28852,45169,46101,45037,45120,54,45085,45169,ExPsyLing2022_Class2,9,9559,10,yes,1024,4
block4,manmade,unrelated,APLE,91,91,938,938,black,no,4,Mozilla,Netscape,"5.0 (Macintosh; Intel Mac OS X 10_15_7) AppleWebKit/537.36 (KHTML, like Gecko) Chrome/107.0.0.0 Safari/537.36",psycho,natural,psycho,psycho,0,uniform,1,1,M,0,0,0,0,10,0,0,10,10,0,0,0,10,10,10,10,0,0,10,10,0,10,05-11-22,05-11-22,12:44:20,Mon Dec 05 2022 12:44:20 GMT+0100 (Centraleuropæisk normaltid),The main experiment item,yes,0,0,/Users/ethan/Documents/GitHub/OpenSesame/Class2,0,0,0,no,mono,no,18,no,white,no,no,768,1006,3.6.1,psycho,psycho,osweb,1.4.11,1,*****,269,,0,m,space,space,space,m,754,13550,5264,4250,754,2,psycho,900,1440,24,900,24,0,0,1440,1670238334814,1024,2,48000,-16,experiment,0,even,MacIntel,TOOL,54,54,54,54,46103,48,46696,26052,53,13607,28852,47485,48251,47368,47436,54,47402,47485,ExPsyLing2022_Class2,10,10313,11,yes,1024,4
block4,natural,two_modifications,[R0W,92,92,913,913,black,no,4,Mozilla,Netscape,"5.0 (Macintosh; Intel Mac OS X 10_15_7) AppleWebKit/537.36 (KHTML, like Gecko) Chrome/107.0.0.0 Safari/537.36",psycho,natural,psycho,psycho,0,uniform,1,1,N,0,0,0,0,11,0,0,11,11,0,0,0,11,11,11,11,0,0,11,11,0,11,05-11-22,05-11-22,12:44:20,Mon Dec 05 2022 12:44:20 GMT+0100 (Centraleuropæisk normaltid),The main experiment item,yes,0,0,/Users/ethan/Documents/GitHub/OpenSesame/Class2,0,0,0,no,mono,no,18,no,white,no,no,768,1006,3.6.1,psycho,psycho,osweb,1.4.11,1,*****,269,,0,n,space,space,space,n,644,13550,5264,4250,644,2,psycho,900,1440,24,900,24,0,0,1440,1670238334814,1024,2,48000,-16,experiment,0,even,MacIntel,CROW,54,54,54,54,48253,48,48863,26052,53,13607,28852,49652,50301,49520,49603,54,49568,49652,ExPsyLing2022_Class2,11,10957,12,yes,1024,4
block4,natural,unrelated,BEAD,92,92,896,896,black,no,4,Mozilla,Netscape,"5.0 (Macintosh; Intel Mac OS X 10_15_7) AppleWebKit/537.36 (KHTML, like Gecko) Chrome/107.0.0.0 Safari/537.36",psycho,natural,psycho,psycho,0,uniform,1,1,N,0,0,0,0,12,0,0,12,12,0,0,0,12,12,12,12,0,0,12,12,0,12,05-11-22,05-11-22,12:44:20,Mon Dec 05 2022 12:44:20 GMT+0100 (Centraleuropæisk normaltid),The main experiment item,yes,0,0,/Users/ethan/Documents/GitHub/OpenSesame/Class2,0,0,0,no,mono,no,18,no,white,no,no,768,1006,3.6.1,psycho,psycho,osweb,1.4.11,1,*****,269,,0,n,space,space,space,n,686,13550,5264,4250,686,2,psycho,900,1440,24,900,24,0,0,1440,1670238334814,1024,2,48000,-16,experiment,0,even,MacIntel,PEAR,54,54,54,54,50302,48,50895,26052,53,13607,28852,51686,52384,51553,51637,54,51602,51686,ExPsyLing2022_Class2,12,11643,13,yes,1024,4
block4,natural,unrelated,CHEAT,93,93,882,882,black,no,4,Mozilla,Netscape,"5.0 (Macintosh; Intel Mac OS X 10_15_7) AppleWebKit/537.36 (KHTML, like Gecko) Chrome/107.0.0.0 Safari/537.36",psycho,natural,psycho,psycho,0,uniform,1,1,N,0,0,0,0,13,0,0,13,13,0,0,0,13,13,13,13,0,0,13,13,0,13,05-11-22,05-11-22,12:44:20,Mon Dec 05 2022 12:44:20 GMT+0100 (Centraleuropæisk normaltid),The main experiment item,yes,0,0,/Users/ethan/Documents/GitHub/OpenSesame/Class2,0,0,0,no,mono,no,18,no,white,no,no,768,1006,3.6.1,psycho,psycho,osweb,1.4.11,1,*****,269,,0,n,space,space,space,n,710,13550,5264,4250,710,2,psycho,900,1440,24,900,24,0,0,1440,1670238334814,1024,2,48000,-16,experiment,0,even,MacIntel,CAMEL,54,54,54,54,52385,48,52978,26052,53,13607,28852,53752,54469,53636,53703,54,53669,53752,ExPsyLing2022_Class2,13,12353,14,yes,1024,5
block4,manmade,one_modification,\\/ASE,93,93,873,873,black,no,4,Mozilla,Netscape,"5.0 (Macintosh; Intel Mac OS X 10_15_7) AppleWebKit/537.36 (KHTML, like Gecko) Chrome/107.0.0.0 Safari/537.36",psycho,natural,psycho,psycho,0,uniform,1,1,M,0,0,0,0,14,0,0,14,14,0,0,0,14,14,14,14,0,0,14,14,0,14,05-11-22,05-11-22,12:44:20,Mon Dec 05 2022 12:44:20 GMT+0100 (Centraleuropæisk normaltid),The main experiment item,yes,0,0,/Users/ethan/Documents/GitHub/OpenSesame/Class2,0,0,0,no,mono,no,18,no,white,no,no,768,1006,3.6.1,psycho,psycho,osweb,1.4.11,1,*****,269,,0,m,space,space,space,m,744,13550,5264,4250,744,2,psycho,900,1440,24,900,24,0,0,1440,1670238334814,1024,2,48000,-16,experiment,0,even,MacIntel,VASE,54,54,54,54,54470,48,55059,26052,53,13607,28852,55837,56586,55720,55803,54,55769,55837,ExPsyLing2022_Class2,14,13097,15,yes,1024,4
block4,manmade,exact,LOCK,94,94,871,871,black,no,4,Mozilla,Netscape,"5.0 (Macintosh; Intel Mac OS X 10_15_7) AppleWebKit/537.36 (KHTML, like Gecko) Chrome/107.0.0.0 Safari/537.36",psycho,natural,psycho,psycho,0,uniform,1,1,M,0,0,0,0,15,0,0,15,15,0,0,0,15,15,15,15,0,0,15,15,0,15,05-11-22,05-11-22,12:44:20,Mon Dec 05 2022 12:44:20 GMT+0100 (Centraleuropæisk normaltid),The main experiment item,yes,0,0,/Users/ethan/Documents/GitHub/OpenSesame/Class2,0,0,0,no,mono,no,18,no,white,no,no,768,1006,3.6.1,psycho,psycho,osweb,1.4.11,1,*****,269,,0,m,space,space,space,m,841,13550,5264,4250,841,2,psycho,900,1440,24,900,24,0,0,1440,1670238334814,1024,2,48000,-16,experiment,0,even,MacIntel,LOCK,54,54,54,54,56587,48,57179,26052,53,13607,28852,57970,58819,57837,57921,54,57886,57970,ExPsyLing2022_Class2,15,13938,16,yes,1024,4
block4,manmade,exact,WALL,94,94,876,876,black,no,4,Mozilla,Netscape,"5.0 (Macintosh; Intel Mac OS X 10_15_7) AppleWebKit/537.36 (KHTML, like Gecko) Chrome/107.0.0.0 Safari/537.36",psycho,natural,psycho,psycho,0,uniform,1,1,M,0,0,0,0,16,0,0,16,16,0,0,0,16,16,16,16,0,0,16,16,0,16,05-11-22,05-11-22,12:44:20,Mon Dec 05 2022 12:44:20 GMT+0100 (Centraleuropæisk normaltid),The main experiment item,yes,0,0,/Users/ethan/Documents/GitHub/OpenSesame/Class2,0,0,0,no,mono,no,18,no,white,no,no,768,1006,3.6.1,psycho,psycho,osweb,1.4.11,1,*****,269,,0,m,space,space,space,m,953,13550,5264,4250,953,2,psycho,900,1440,24,900,24,0,0,1440,1670238334814,1024,2,48000,-16,experiment,0,even,MacIntel,WALL,54,54,54,54,58820,48,59415,26052,53,13607,28852,60203,61169,60071,60154,54,60120,60203,ExPsyLing2022_Class2,16,14891,17,yes,1024,4
block4,natural,two_modifications,S–ò0W,94,94,869,869,black,no,4,Mozilla,Netscape,"5.0 (Macintosh; Intel Mac OS X 10_15_7) AppleWebKit/537.36 (KHTML, like Gecko) Chrome/107.0.0.0 Safari/537.36",psycho,natural,psycho,psycho,0,uniform,1,1,N,0,0,0,0,17,0,0,17,17,0,0,0,17,17,17,17,0,0,17,17,0,17,05-11-22,05-11-22,12:44:20,Mon Dec 05 2022 12:44:20 GMT+0100 (Centraleuropæisk normaltid),The main experiment item,yes,0,0,/Users/ethan/Documents/GitHub/OpenSesame/Class2,0,0,0,no,mono,no,18,no,white,no,no,768,1006,3.6.1,psycho,psycho,osweb,1.4.11,1,*****,269,,0,n,space,space,space,n,748,13550,5264,4250,748,2,psycho,900,1440,24,900,24,0,0,1440,1670238334814,1024,2,48000,-16,experiment,0,even,MacIntel,SNOW,54,54,54,54,61170,48,61764,26052,53,13607,28852,62552,63302,62421,62504,54,62469,62552,ExPsyLing2022_Class2,17,15639,18,yes,1024,4
block4,manmade,unrelated,FLAG,95,95,870,870,black,no,4,Mozilla,Netscape,"5.0 (Macintosh; Intel Mac OS X 10_15_7) AppleWebKit/537.36 (KHTML, like Gecko) Chrome/107.0.0.0 Safari/537.36",psycho,natural,psycho,psycho,0,uniform,1,1,M,0,0,0,0,18,0,0,18,18,0,0,0,18,18,18,18,0,0,18,18,0,18,05-11-22,05-11-22,12:44:20,Mon Dec 05 2022 12:44:20 GMT+0100 (Centraleuropæisk normaltid),The main experiment item,yes,0,0,/Users/ethan/Documents/GitHub/OpenSesame/Class2,0,0,0,no,mono,no,18,no,white,no,no,768,1006,3.6.1,psycho,psycho,osweb,1.4.11,1,*****,269,,0,m,space,space,space,m,897,13550,5264,4250,897,2,psycho,900,1440,24,900,24,0,0,1440,1670238334814,1024,2,48000,-16,experiment,0,even,MacIntel,CAGE,54,54,54,54,63303,48,63897,26052,53,13607,28852,64671,65569,64553,64621,54,64586,64671,ExPsyLing2022_Class2,18,16536,19,yes,1024,4
block4,natural,two_modifications,SH33P,95,95,864,864,black,no,4,Mozilla,Netscape,"5.0 (Macintosh; Intel Mac OS X 10_15_7) AppleWebKit/537.36 (KHTML, like Gecko) Chrome/107.0.0.0 Safari/537.36",psycho,natural,psycho,psycho,0,uniform,1,1,N,0,0,0,0,19,0,0,19,19,0,0,0,19,19,19,19,0,0,19,19,0,19,05-11-22,05-11-22,12:44:20,Mon Dec 05 2022 12:44:20 GMT+0100 (Centraleuropæisk normaltid),The main experiment item,yes,0,0,/Users/ethan/Documents/GitHub/OpenSesame/Class2,0,0,0,no,mono,no,18,no,white,no,no,768,1006,3.6.1,psycho,psycho,osweb,1.4.11,1,*****,269,,0,n,space,space,space,n,742,13550,5264,4250,742,2,psycho,900,1440,24,900,24,0,0,1440,1670238334814,1024,2,48000,-16,experiment,0,even,MacIntel,SHEEP,54,54,54,54,65571,48,66165,26052,53,13607,28852,66954,67703,66821,66904,54,66870,66953,ExPsyLing2022_Class2,19,17278,20,yes,1024,5
block4,natural,one_modification,R4IN,95,95,856,856,black,no,4,Mozilla,Netscape,"5.0 (Macintosh; Intel Mac OS X 10_15_7) AppleWebKit/537.36 (KHTML, like Gecko) Chrome/107.0.0.0 Safari/537.36",psycho,natural,psycho,psycho,0,uniform,1,1,N,0,0,0,0,20,0,0,20,20,0,0,0,20,20,20,20,0,0,20,20,0,20,05-11-22,05-11-22,12:44:20,Mon Dec 05 2022 12:44:20 GMT+0100 (Centraleuropæisk normaltid),The main experiment item,yes,0,0,/Users/ethan/Documents/GitHub/OpenSesame/Class2,0,0,0,no,mono,no,18,no,white,no,no,768,1006,3.6.1,psycho,psycho,osweb,1.4.11,1,*****,269,,0,n,space,space,space,n,690,13550,5264,4250,690,2,psycho,900,1440,24,900,24,0,0,1440,1670238334814,1024,2,48000,-16,experiment,0,even,MacIntel,RAIN,54,54,54,54,67704,48,68299,26052,53,13607,28852,69088,69786,68954,69038,54,69003,69088,ExPsyLing2022_Class2,20,17968,21,yes,1024,4
block4,natural,unrelated,BIRDS,95,95,845,845,black,no,4,Mozilla,Netscape,"5.0 (Macintosh; Intel Mac OS X 10_15_7) AppleWebKit/537.36 (KHTML, like Gecko) Chrome/107.0.0.0 Safari/537.36",psycho,natural,psycho,psycho,0,uniform,1,1,N,0,0,0,0,21,0,0,21,21,0,0,0,21,21,21,21,0,0,21,21,0,21,05-11-22,05-11-22,12:44:20,Mon Dec 05 2022 12:44:20 GMT+0100 (Centraleuropæisk normaltid),The main experiment item,yes,0,0,/Users/ethan/Documents/GitHub/OpenSesame/Class2,0,0,0,no,mono,no,18,no,white,no,no,768,1006,3.6.1,psycho,psycho,osweb,1.4.11,1,*****,269,,0,n,space,space,space,n,630,13550,5264,4250,630,2,psycho,900,1440,24,900,24,0,0,1440,1670238334814,1024,2,48000,-16,experiment,0,even,MacIntel,APPLE,54,54,54,54,69787,48,70378,26052,53,13607,28852,71170,71804,71038,71121,54,71087,71170,ExPsyLing2022_Class2,21,18598,22,yes,1024,5
block4,natural,exact,PLUM,96,96,833,833,black,no,4,Mozilla,Netscape,"5.0 (Macintosh; Intel Mac OS X 10_15_7) AppleWebKit/537.36 (KHTML, like Gecko) Chrome/107.0.0.0 Safari/537.36",psycho,natural,psycho,psycho,0,uniform,1,1,N,0,0,0,0,22,0,0,22,22,0,0,0,22,22,22,22,0,0,22,22,0,22,05-11-22,05-11-22,12:44:20,Mon Dec 05 2022 12:44:20 GMT+0100 (Centraleuropæisk normaltid),The main experiment item,yes,0,0,/Users/ethan/Documents/GitHub/OpenSesame/Class2,0,0,0,no,mono,no,18,no,white,no,no,768,1006,3.6.1,psycho,psycho,osweb,1.4.11,1,*****,269,,0,n,space,space,space,n,552,13550,5264,4250,552,2,psycho,900,1440,24,900,24,0,0,1440,1670238334814,1024,2,48000,-16,experiment,0,even,MacIntel,PLUM,54,54,54,54,71805,48,72400,26052,53,13607,28852,73187,73752,73055,73138,54,73104,73187,ExPsyLing2022_Class2,22,19150,23,yes,1024,4
block4,natural,exact,WATER,96,96,826,826,black,no,4,Mozilla,Netscape,"5.0 (Macintosh; Intel Mac OS X 10_15_7) AppleWebKit/537.36 (KHTML, like Gecko) Chrome/107.0.0.0 Safari/537.36",psycho,natural,psycho,psycho,0,uniform,1,1,N,0,0,0,0,23,0,0,23,23,0,0,0,23,23,23,23,0,0,23,23,0,23,05-11-22,05-11-22,12:44:20,Mon Dec 05 2022 12:44:20 GMT+0100 (Centraleuropæisk normaltid),The main experiment item,yes,0,0,/Users/ethan/Documents/GitHub/OpenSesame/Class2,0,0,0,no,mono,no,18,no,white,no,no,768,1006,3.6.1,psycho,psycho,osweb,1.4.11,1,*****,269,,0,n,space,space,space,n,667,13550,5264,4250,667,2,psycho,900,1440,24,900,24,0,0,1440,1670238334814,1024,2,48000,-16,experiment,0,even,MacIntel,WATER,54,54,54,54,73753,48,74333,26052,53,13607,28852,75121,75803,74989,75072,54,75037,75121,ExPsyLing2022_Class2,23,19817,24,yes,1024,5
block4,manmade,one_modification,I3ALL,96,96,813,813,black,no,4,Mozilla,Netscape,"5.0 (Macintosh; Intel Mac OS X 10_15_7) AppleWebKit/537.36 (KHTML, like Gecko) Chrome/107.0.0.0 Safari/537.36",psycho,natural,psycho,psycho,0,uniform,1,1,M,0,0,0,0,24,0,0,24,24,0,0,0,24,24,24,24,0,0,24,24,0,24,05-11-22,05-11-22,12:44:20,Mon Dec 05 2022 12:44:20 GMT+0100 (Centraleuropæisk normaltid),The main experiment item,yes,0,0,/Users/ethan/Documents/GitHub/OpenSesame/Class2,0,0,0,no,mono,no,18,no,white,no,no,768,1006,3.6.1,psycho,psycho,osweb,1.4.11,1,*****,269,,0,m,space,space,space,m,511,13550,5264,4250,511,2,psycho,900,1440,24,900,24,0,0,1440,1670238334814,1024,2,48000,-16,experiment,0,even,MacIntel,BALL,54,54,54,54,75804,48,76398,26052,53,13607,28852,77188,77703,77055,77138,54,77104,77188,ExPsyLing2022_Class2,24,20328,25,yes,1024,4
block4,natural,one_modification,5NAIL,92,92,803,803,black,no,4,Mozilla,Netscape,"5.0 (Macintosh; Intel Mac OS X 10_15_7) AppleWebKit/537.36 (KHTML, like Gecko) Chrome/107.0.0.0 Safari/537.36",psycho,natural,psycho,psycho,0,uniform,0,0,N,0,0,0,0,25,0,0,25,25,0,0,0,25,25,25,25,0,0,25,25,0,25,05-11-22,05-11-22,12:44:20,Mon Dec 05 2022 12:44:20 GMT+0100 (Centraleuropæisk normaltid),The main experiment item,yes,0,0,/Users/ethan/Documents/GitHub/OpenSesame/Class2,0,0,0,no,mono,no,18,no,white,no,no,768,1006,3.6.1,psycho,psycho,osweb,1.4.11,1,*****,269,,0,m,space,space,space,m,549,13550,5264,4250,549,2,psycho,900,1440,24,900,24,0,0,1440,1670238334814,1024,2,48000,-16,experiment,0,even,MacIntel,SNAIL,54,54,54,54,77705,48,78298,26052,53,13607,28852,79087,79637,78955,79039,54,79004,79087,ExPsyLing2022_Class2,24,20877,26,yes,1024,5
block4,manmade,one_modification,)ESK,93,93,800,800,black,no,4,Mozilla,Netscape,"5.0 (Macintosh; Intel Mac OS X 10_15_7) AppleWebKit/537.36 (KHTML, like Gecko) Chrome/107.0.0.0 Safari/537.36",psycho,natural,psycho,psycho,0,uniform,1,1,M,0,0,0,0,26,0,0,26,26,0,0,0,26,26,26,26,0,0,26,26,0,26,05-11-22,05-11-22,12:44:20,Mon Dec 05 2022 12:44:20 GMT+0100 (Centraleuropæisk normaltid),The main experiment item,yes,0,0,/Users/ethan/Documents/GitHub/OpenSesame/Class2,0,0,0,no,mono,no,18,no,white,no,no,768,1006,3.6.1,psycho,psycho,osweb,1.4.11,1,*****,269,,0,m,space,space,space,m,726,13550,5264,4250,726,2,psycho,900,1440,24,900,24,0,0,1440,1670238334814,1024,2,48000,-16,experiment,0,even,MacIntel,DESK,54,54,54,54,77705,48,80232,79638,53,13607,28852,81021,81754,80888,80972,54,80937,81021,ExPsyLing2022_Class2,25,21603,27,yes,1024,4
block4,manmade,two_modifications,S#0E,93,93,803,803,black,no,4,Mozilla,Netscape,"5.0 (Macintosh; Intel Mac OS X 10_15_7) AppleWebKit/537.36 (KHTML, like Gecko) Chrome/107.0.0.0 Safari/537.36",psycho,natural,psycho,psycho,0,uniform,1,1,M,0,0,0,0,27,0,0,27,27,0,0,0,27,27,27,27,0,0,27,27,0,27,05-11-22,05-11-22,12:44:20,Mon Dec 05 2022 12:44:20 GMT+0100 (Centraleuropæisk normaltid),The main experiment item,yes,0,0,/Users/ethan/Documents/GitHub/OpenSesame/Class2,0,0,0,no,mono,no,18,no,white,no,no,768,1006,3.6.1,psycho,psycho,osweb,1.4.11,1,*****,269,,0,m,space,space,space,m,880,13550,5264,4250,880,2,psycho,900,1440,24,900,24,0,0,1440,1670238334814,1024,2,48000,-16,experiment,0,even,MacIntel,SHOE,54,54,54,54,81755,48,82371,79638,53,13607,28852,83171,84053,83039,83122,54,83087,83171,ExPsyLing2022_Class2,26,22483,28,yes,1024,4
block4,natural,one_modification,)UCK,93,93,798,798,black,no,4,Mozilla,Netscape,"5.0 (Macintosh; Intel Mac OS X 10_15_7) AppleWebKit/537.36 (KHTML, like Gecko) Chrome/107.0.0.0 Safari/537.36",psycho,natural,psycho,psycho,0,uniform,1,1,N,0,0,0,0,28,0,0,28,28,0,0,0,28,28,28,28,0,0,28,28,0,28,05-11-22,05-11-22,12:44:20,Mon Dec 05 2022 12:44:20 GMT+0100 (Centraleuropæisk normaltid),The main experiment item,yes,0,0,/Users/ethan/Documents/GitHub/OpenSesame/Class2,0,0,0,no,mono,no,18,no,white,no,no,768,1006,3.6.1,psycho,psycho,osweb,1.4.11,1,*****,269,,0,n,space,space,space,n,672,13550,5264,4250,672,2,psycho,900,1440,24,900,24,0,0,1440,1670238334814,1024,2,48000,-16,experiment,0,even,MacIntel,DUCK,54,54,54,54,84054,48,84669,79638,53,13607,28852,85438,86121,85322,85405,54,85371,85438,ExPsyLing2022_Class2,27,23155,29,yes,1024,4
block4,manmade,two_modifications,13O0K,93,93,804,804,black,no,4,Mozilla,Netscape,"5.0 (Macintosh; Intel Mac OS X 10_15_7) AppleWebKit/537.36 (KHTML, like Gecko) Chrome/107.0.0.0 Safari/537.36",psycho,natural,psycho,psycho,0,uniform,1,1,M,0,0,0,0,29,0,0,29,29,0,0,0,29,29,29,29,0,0,29,29,0,29,05-11-22,05-11-22,12:44:20,Mon Dec 05 2022 12:44:20 GMT+0100 (Centraleuropæisk normaltid),The main experiment item,yes,0,0,/Users/ethan/Documents/GitHub/OpenSesame/Class2,0,0,0,no,mono,no,18,no,white,no,no,768,1006,3.6.1,psycho,psycho,osweb,1.4.11,1,*****,269,,0,m,space,space,space,m,968,13550,5264,4250,968,2,psycho,900,1440,24,900,24,0,0,1440,1670238334814,1024,2,48000,-16,experiment,0,even,MacIntel,BOOK,54,54,54,54,86122,48,86714,79638,53,13607,28852,87488,88471,87373,87455,54,87421,87488,ExPsyLing2022_Class2,28,24123,30,yes,1024,4
block4,natural,unrelated,BEAST,94,94,806,806,black,no,4,Mozilla,Netscape,"5.0 (Macintosh; Intel Mac OS X 10_15_7) AppleWebKit/537.36 (KHTML, like Gecko) Chrome/107.0.0.0 Safari/537.36",psycho,natural,psycho,psycho,0,uniform,1,1,N,0,0,0,0,30,0,0,30,30,0,0,0,30,30,30,30,0,0,30,30,0,30,05-11-22,05-11-22,12:44:20,Mon Dec 05 2022 12:44:20 GMT+0100 (Centraleuropæisk normaltid),The main experiment item,yes,0,0,/Users/ethan/Documents/GitHub/OpenSesame/Class2,0,0,0,no,mono,no,18,no,white,no,no,768,1006,3.6.1,psycho,psycho,osweb,1.4.11,1,*****,269,,0,n,space,space,space,n,866,13550,5264,4250,866,2,psycho,900,1440,24,900,24,0,0,1440,1670238334814,1024,2,48000,-16,experiment,0,even,MacIntel,EGGS,54,54,54,54,88472,48,89064,79638,53,13607,28852,89855,90738,89723,89806,54,89772,89855,ExPsyLing2022_Class2,29,24989,31,yes,1024,4
block4,manmade,exact,CAKE,94,94,805,805,black,no,4,Mozilla,Netscape,"5.0 (Macintosh; Intel Mac OS X 10_15_7) AppleWebKit/537.36 (KHTML, like Gecko) Chrome/107.0.0.0 Safari/537.36",psycho,natural,psycho,psycho,0,uniform,1,1,M,0,0,0,0,31,0,0,31,31,0,0,0,31,31,31,31,0,0,31,31,0,31,05-11-22,05-11-22,12:44:20,Mon Dec 05 2022 12:44:20 GMT+0100 (Centraleuropæisk normaltid),The main experiment item,yes,0,0,/Users/ethan/Documents/GitHub/OpenSesame/Class2,0,0,0,no,mono,no,18,no,white,no,no,768,1006,3.6.1,psycho,psycho,osweb,1.4.11,1,*****,269,,0,m,space,space,space,m,767,13550,5264,4250,767,2,psycho,900,1440,24,900,24,0,0,1440,1670238334814,1024,2,48000,-16,experiment,0,even,MacIntel,CAKE,54,54,54,54,90739,48,91331,79638,53,13607,28852,92105,92887,91990,92072,54,92038,92105,ExPsyLing2022_Class2,30,25756,32,yes,1024,4
block4,natural,one_modification,ST0RM,94,94,804,804,black,no,4,Mozilla,Netscape,"5.0 (Macintosh; Intel Mac OS X 10_15_7) AppleWebKit/537.36 (KHTML, like Gecko) Chrome/107.0.0.0 Safari/537.36",psycho,natural,psycho,psycho,0,uniform,1,1,N,0,0,0,0,32,0,0,32,32,0,0,0,32,32,32,32,0,0,32,32,0,32,05-11-22,05-11-22,12:44:20,Mon Dec 05 2022 12:44:20 GMT+0100 (Centraleuropæisk normaltid),The main experiment item,yes,0,0,/Users/ethan/Documents/GitHub/OpenSesame/Class2,0,0,0,no,mono,no,18,no,white,no,no,768,1006,3.6.1,psycho,psycho,osweb,1.4.11,1,*****,269,,0,n,space,space,space,n,774,13550,5264,4250,774,2,psycho,900,1440,24,900,24,0,0,1440,1670238334814,1024,2,48000,-16,experiment,0,even,MacIntel,STORM,54,54,54,54,92888,48,93481,79638,53,13607,28852,94271,95054,94139,94223,54,94188,94271,ExPsyLing2022_Class2,31,26530,33,yes,1024,4
block4,natural,two_modifications,M00N,94,94,799,799,black,no,4,Mozilla,Netscape,"5.0 (Macintosh; Intel Mac OS X 10_15_7) AppleWebKit/537.36 (KHTML, like Gecko) Chrome/107.0.0.0 Safari/537.36",psycho,natural,psycho,psycho,0,uniform,1,1,N,0,0,0,0,33,0,0,33,33,0,0,0,33,33,33,33,0,0,33,33,0,33,05-11-22,05-11-22,12:44:20,Mon Dec 05 2022 12:44:20 GMT+0100 (Centraleuropæisk normaltid),The main experiment item,yes,0,0,/Users/ethan/Documents/GitHub/OpenSesame/Class2,0,0,0,no,mono,no,18,no,white,no,no,768,1006,3.6.1,psycho,psycho,osweb,1.4.11,1,*****,269,,0,n,space,space,space,n,630,13550,5264,4250,630,2,psycho,900,1440,24,900,24,0,0,1440,1670238334814,1024,2,48000,-16,experiment,0,even,MacIntel,MOON,54,54,54,54,95056,48,95648,79638,53,13607,28852,96422,97055,96305,96373,54,96339,96422,ExPsyLing2022_Class2,32,27160,34,yes,1024,4
block4,manmade,two_modifications,C04T,94,94,794,794,black,no,4,Mozilla,Netscape,"5.0 (Macintosh; Intel Mac OS X 10_15_7) AppleWebKit/537.36 (KHTML, like Gecko) Chrome/107.0.0.0 Safari/537.36",psycho,natural,psycho,psycho,0,uniform,1,1,M,0,0,0,0,34,0,0,34,34,0,0,0,34,34,34,34,0,0,34,34,0,34,05-11-22,05-11-22,12:44:20,Mon Dec 05 2022 12:44:20 GMT+0100 (Centraleuropæisk normaltid),The main experiment item,yes,0,0,/Users/ethan/Documents/GitHub/OpenSesame/Class2,0,0,0,no,mono,no,18,no,white,no,no,768,1006,3.6.1,psycho,psycho,osweb,1.4.11,1,*****,269,,0,m,space,space,space,m,640,13550,5264,4250,640,2,psycho,900,1440,24,900,24,0,0,1440,1670238334814,1024,2,48000,-16,experiment,0,even,MacIntel,COAT,54,54,54,54,97056,48,97648,79638,53,13607,28852,98439,99088,98306,98390,54,98355,98439,ExPsyLing2022_Class2,33,27800,35,yes,1024,4
block4,manmade,two_modifications,OV3–ò,94,94,791,791,black,no,4,Mozilla,Netscape,"5.0 (Macintosh; Intel Mac OS X 10_15_7) AppleWebKit/537.36 (KHTML, like Gecko) Chrome/107.0.0.0 Safari/537.36",psycho,natural,psycho,psycho,0,uniform,1,1,M,0,0,0,0,35,0,0,35,35,0,0,0,35,35,35,35,0,0,35,35,0,35,05-11-22,05-11-22,12:44:20,Mon Dec 05 2022 12:44:20 GMT+0100 (Centraleuropæisk normaltid),The main experiment item,yes,0,0,/Users/ethan/Documents/GitHub/OpenSesame/Class2,0,0,0,no,mono,no,18,no,white,no,no,768,1006,3.6.1,psycho,psycho,osweb,1.4.11,1,*****,269,,0,m,space,space,space,m,673,13550,5264,4250,673,2,psycho,900,1440,24,900,24,0,0,1440,1670238334814,1024,2,48000,-16,experiment,0,even,MacIntel,OVEN,54,54,54,54,99089,48,99682,79638,53,13607,28852,100472,101155,100340,100423,54,100389,100472,ExPsyLing2022_Class2,34,28473,36,yes,1024,4
block4,manmade,unrelated,TYRE,95,95,786,786,black,no,4,Mozilla,Netscape,"5.0 (Macintosh; Intel Mac OS X 10_15_7) AppleWebKit/537.36 (KHTML, like Gecko) Chrome/107.0.0.0 Safari/537.36",psycho,natural,psycho,psycho,0,uniform,1,1,M,0,0,0,0,36,0,0,36,36,0,0,0,36,36,36,36,0,0,36,36,0,36,05-11-22,05-11-22,12:44:20,Mon Dec 05 2022 12:44:20 GMT+0100 (Centraleuropæisk normaltid),The main experiment item,yes,0,0,/Users/ethan/Documents/GitHub/OpenSesame/Class2,0,0,0,no,mono,no,18,no,white,no,no,768,1006,3.6.1,psycho,psycho,osweb,1.4.11,1,*****,269,,0,m,space,space,space,m,624,13550,5264,4250,624,2,psycho,900,1440,24,900,24,0,0,1440,1670238334814,1024,2,48000,-16,experiment,0,even,MacIntel,SINK,54,54,54,54,101156,48,101748,79638,53,13607,28852,102539,103172,102407,102490,54,102456,102539,ExPsyLing2022_Class2,35,29097,37,yes,1024,4
block4,natural,one_modification,|*ONY,95,95,780,780,black,no,4,Mozilla,Netscape,"5.0 (Macintosh; Intel Mac OS X 10_15_7) AppleWebKit/537.36 (KHTML, like Gecko) Chrome/107.0.0.0 Safari/537.36",psycho,natural,psycho,psycho,0,uniform,1,1,N,0,0,0,0,37,0,0,37,37,0,0,0,37,37,37,37,0,0,37,37,0,37,05-11-22,05-11-22,12:44:20,Mon Dec 05 2022 12:44:20 GMT+0100 (Centraleuropæisk normaltid),The main experiment item,yes,0,0,/Users/ethan/Documents/GitHub/OpenSesame/Class2,0,0,0,no,mono,no,18,no,white,no,no,768,1006,3.6.1,psycho,psycho,osweb,1.4.11,1,*****,269,,0,n,space,space,space,n,529,13550,5264,4250,529,2,psycho,900,1440,24,900,24,0,0,1440,1670238334814,1024,2,48000,-16,experiment,0,even,MacIntel,PONY,54,54,54,54,103173,48,103766,79638,53,13607,28852,104556,105089,104423,104507,54,104473,104556,ExPsyLing2022_Class2,36,29626,38,yes,1024,4
block4,natural,unrelated,DOOR,95,95,774,774,black,no,4,Mozilla,Netscape,"5.0 (Macintosh; Intel Mac OS X 10_15_7) AppleWebKit/537.36 (KHTML, like Gecko) Chrome/107.0.0.0 Safari/537.36",psycho,natural,psycho,psycho,0,uniform,1,1,N,0,0,0,0,38,0,0,38,38,0,0,0,38,38,38,38,0,0,38,38,0,38,05-11-22,05-11-22,12:44:20,Mon Dec 05 2022 12:44:20 GMT+0100 (Centraleuropæisk normaltid),The main experiment item,yes,0,0,/Users/ethan/Documents/GitHub/OpenSesame/Class2,0,0,0,no,mono,no,18,no,white,no,no,768,1006,3.6.1,psycho,psycho,osweb,1.4.11,1,*****,269,,0,n,space,space,space,n,573,13550,5264,4250,573,2,psycho,900,1440,24,900,24,0,0,1440,1670238334814,1024,2,48000,-16,experiment,0,even,MacIntel,WOLF,54,54,54,54,105090,48,105682,79638,53,13607,28852,106473,107055,106341,106424,54,106389,106473,ExPsyLing2022_Class2,37,30199,39,yes,1024,4
block4,manmade,one_modification,TR(_)CK,95,95,774,774,black,no,4,Mozilla,Netscape,"5.0 (Macintosh; Intel Mac OS X 10_15_7) AppleWebKit/537.36 (KHTML, like Gecko) Chrome/107.0.0.0 Safari/537.36",psycho,natural,psycho,psycho,0,uniform,1,1,M,0,0,0,0,39,0,0,39,39,0,0,0,39,39,39,39,0,0,39,39,0,39,05-11-22,05-11-22,12:44:20,Mon Dec 05 2022 12:44:20 GMT+0100 (Centraleuropæisk normaltid),The main experiment item,yes,0,0,/Users/ethan/Documents/GitHub/OpenSesame/Class2,0,0,0,no,mono,no,18,no,white,no,no,768,1006,3.6.1,psycho,psycho,osweb,1.4.11,1,*****,269,,0,m,space,space,space,m,753,13550,5264,4250,753,2,psycho,900,1440,24,900,24,0,0,1440,1670238334814,1024,2,48000,-16,experiment,0,even,MacIntel,TRUCK,54,54,54,54,107056,48,107651,79638,53,13607,28852,108423,109189,108307,108390,54,108356,108423,ExPsyLing2022_Class2,38,30952,40,yes,1024,5
block4,manmade,exact,TOYS,95,95,771,771,black,no,4,Mozilla,Netscape,"5.0 (Macintosh; Intel Mac OS X 10_15_7) AppleWebKit/537.36 (KHTML, like Gecko) Chrome/107.0.0.0 Safari/537.36",psycho,natural,psycho,psycho,0,uniform,1,1,M,0,0,0,0,40,0,0,40,40,0,0,0,40,40,40,40,0,0,40,40,0,40,05-11-22,05-11-22,12:44:20,Mon Dec 05 2022 12:44:20 GMT+0100 (Centraleuropæisk normaltid),The main experiment item,yes,0,0,/Users/ethan/Documents/GitHub/OpenSesame/Class2,0,0,0,no,mono,no,18,no,white,no,no,768,1006,3.6.1,psycho,psycho,osweb,1.4.11,1,*****,269,,0,m,space,space,space,m,650,13550,5264,4250,650,2,psycho,900,1440,24,900,24,0,0,1440,1670238334814,1024,2,48000,-16,experiment,0,even,MacIntel,TOYS,54,54,54,54,109190,48,109783,79638,53,13607,28852,110572,111223,110441,110524,54,110489,110572,ExPsyLing2022_Class2,39,31602,41,yes,1024,4
block4,natural,exact,BIRD,95,95,770,770,black,no,4,Mozilla,Netscape,"5.0 (Macintosh; Intel Mac OS X 10_15_7) AppleWebKit/537.36 (KHTML, like Gecko) Chrome/107.0.0.0 Safari/537.36",psycho,natural,psycho,psycho,0,uniform,1,1,N,0,0,0,0,41,0,0,41,41,0,0,0,41,41,41,41,0,0,41,41,0,41,05-11-22,05-11-22,12:44:20,Mon Dec 05 2022 12:44:20 GMT+0100 (Centraleuropæisk normaltid),The main experiment item,yes,0,0,/Users/ethan/Documents/GitHub/OpenSesame/Class2,0,0,0,no,mono,no,18,no,white,no,no,768,1006,3.6.1,psycho,psycho,osweb,1.4.11,1,*****,269,,0,n,space,space,space,n,721,13550,5264,4250,721,2,psycho,900,1440,24,900,24,0,0,1440,1670238334814,1024,2,48000,-16,experiment,0,even,MacIntel,BIRD,54,54,54,54,111224,48,111815,79638,53,13607,28852,112590,113322,112474,112557,54,112523,112590,ExPsyLing2022_Class2,40,32323,42,yes,1024,4
block4,manmade,one_modification,|*AGE,95,95,765,765,black,no,4,Mozilla,Netscape,"5.0 (Macintosh; Intel Mac OS X 10_15_7) AppleWebKit/537.36 (KHTML, like Gecko) Chrome/107.0.0.0 Safari/537.36",psycho,natural,psycho,psycho,0,uniform,1,1,M,0,0,0,0,42,0,0,42,42,0,0,0,42,42,42,42,0,0,42,42,0,42,05-11-22,05-11-22,12:44:20,Mon Dec 05 2022 12:44:20 GMT+0100 (Centraleuropæisk normaltid),The main experiment item,yes,0,0,/Users/ethan/Documents/GitHub/OpenSesame/Class2,0,0,0,no,mono,no,18,no,white,no,no,768,1006,3.6.1,psycho,psycho,osweb,1.4.11,1,*****,269,,0,m,space,space,space,m,587,13550,5264,4250,587,2,psycho,900,1440,24,900,24,0,0,1440,1670238334814,1024,2,48000,-16,experiment,0,even,MacIntel,PAGE,54,54,54,54,113324,48,113916,79638,53,13607,28852,114707,115306,114574,114658,54,114623,114707,ExPsyLing2022_Class2,41,32910,43,yes,1024,4
block4,natural,two_modifications,I3E4K,93,93,767,767,black,no,4,Mozilla,Netscape,"5.0 (Macintosh; Intel Mac OS X 10_15_7) AppleWebKit/537.36 (KHTML, like Gecko) Chrome/107.0.0.0 Safari/537.36",psycho,natural,psycho,psycho,0,uniform,0,0,N,0,0,0,0,43,0,0,43,43,0,0,0,43,43,43,43,0,0,43,43,0,43,05-11-22,05-11-22,12:44:20,Mon Dec 05 2022 12:44:20 GMT+0100 (Centraleuropæisk normaltid),The main experiment item,yes,0,0,/Users/ethan/Documents/GitHub/OpenSesame/Class2,0,0,0,no,mono,no,18,no,white,no,no,768,1006,3.6.1,psycho,psycho,osweb,1.4.11,1,*****,269,,0,m,space,space,space,m,824,13550,5264,4250,824,2,psycho,900,1440,24,900,24,0,0,1440,1670238334814,1024,2,48000,-16,experiment,0,even,MacIntel,BEAK,54,54,54,54,115307,48,115901,79638,53,13607,28852,116691,117523,116558,116641,54,116607,116691,ExPsyLing2022_Class2,41,33734,44,yes,1024,4
block4,natural,two_modifications,)OG5,91,91,762,762,black,no,4,Mozilla,Netscape,"5.0 (Macintosh; Intel Mac OS X 10_15_7) AppleWebKit/537.36 (KHTML, like Gecko) Chrome/107.0.0.0 Safari/537.36",psycho,natural,psycho,psycho,0,uniform,0,0,N,0,0,0,0,44,0,0,44,44,0,0,0,44,44,44,44,0,0,44,44,0,44,05-11-22,05-11-22,12:44:20,Mon Dec 05 2022 12:44:20 GMT+0100 (Centraleuropæisk normaltid),The main experiment item,yes,0,0,/Users/ethan/Documents/GitHub/OpenSesame/Class2,0,0,0,no,mono,no,18,no,white,no,no,768,1006,3.6.1,psycho,psycho,osweb,1.4.11,1,*****,269,,0,m,space,space,space,m,564,13550,5264,4250,564,2,psycho,900,1440,24,900,24,0,0,1440,1670238334814,1024,2,48000,-16,experiment,0,even,MacIntel,DOGS,54,54,54,54,115307,48,118129,117524,53,13607,28852,118907,119473,118792,118874,54,118841,118907,ExPsyLing2022_Class2,41,34298,45,yes,1024,4
block4,manmade,two_modifications,I3RE4D,91,91,768,768,black,no,4,Mozilla,Netscape,"5.0 (Macintosh; Intel Mac OS X 10_15_7) AppleWebKit/537.36 (KHTML, like Gecko) Chrome/107.0.0.0 Safari/537.36",psycho,natural,psycho,psycho,0,uniform,1,1,M,0,0,0,0,45,0,0,45,45,0,0,0,45,45,45,45,0,0,45,45,0,45,05-11-22,05-11-22,12:44:20,Mon Dec 05 2022 12:44:20 GMT+0100 (Centraleuropæisk normaltid),The main experiment item,yes,0,0,/Users/ethan/Documents/GitHub/OpenSesame/Class2,0,0,0,no,mono,no,18,no,white,no,no,768,1006,3.6.1,psycho,psycho,osweb,1.4.11,1,*****,269,,0,m,space,space,space,m,1020,13550,5264,4250,1020,2,psycho,900,1440,24,900,24,0,0,1440,1670238334814,1024,2,48000,-16,experiment,0,even,MacIntel,BREAD,54,54,54,54,115307,48,120087,119474,53,13607,28852,120873,121906,120742,120825,54,120790,120873,ExPsyLing2022_Class2,42,35318,46,yes,1024,5
block4,manmade,one_modification,MA1L,91,91,766,766,black,no,4,Mozilla,Netscape,"5.0 (Macintosh; Intel Mac OS X 10_15_7) AppleWebKit/537.36 (KHTML, like Gecko) Chrome/107.0.0.0 Safari/537.36",psycho,natural,psycho,psycho,0,uniform,1,1,M,0,0,0,0,46,0,0,46,46,0,0,0,46,46,46,46,0,0,46,46,0,46,05-11-22,05-11-22,12:44:20,Mon Dec 05 2022 12:44:20 GMT+0100 (Centraleuropæisk normaltid),The main experiment item,yes,0,0,/Users/ethan/Documents/GitHub/OpenSesame/Class2,0,0,0,no,mono,no,18,no,white,no,no,768,1006,3.6.1,psycho,psycho,osweb,1.4.11,1,*****,269,,0,m,space,space,space,m,687,13550,5264,4250,687,2,psycho,900,1440,24,900,24,0,0,1440,1670238334814,1024,2,48000,-16,experiment,0,even,MacIntel,MAIL,54,54,54,54,121907,48,122502,119474,53,13607,28852,123290,123990,123158,123241,54,123207,123290,ExPsyLing2022_Class2,43,36005,47,yes,1024,4
block4,natural,exact,LAMB,92,92,767,767,black,no,4,Mozilla,Netscape,"5.0 (Macintosh; Intel Mac OS X 10_15_7) AppleWebKit/537.36 (KHTML, like Gecko) Chrome/107.0.0.0 Safari/537.36",psycho,natural,psycho,psycho,0,uniform,1,1,N,0,0,0,0,47,0,0,47,47,0,0,0,47,47,47,47,0,0,47,47,0,47,05-11-22,05-11-22,12:44:20,Mon Dec 05 2022 12:44:20 GMT+0100 (Centraleuropæisk normaltid),The main experiment item,yes,0,0,/Users/ethan/Documents/GitHub/OpenSesame/Class2,0,0,0,no,mono,no,18,no,white,no,no,768,1006,3.6.1,psycho,psycho,osweb,1.4.11,1,*****,269,,0,n,space,space,space,n,796,13550,5264,4250,796,2,psycho,900,1440,24,900,24,0,0,1440,1670238334814,1024,2,48000,-16,experiment,0,even,MacIntel,LAMB,54,54,54,54,123991,48,124584,119474,53,13607,28852,125373,126172,125241,125325,54,125290,125373,ExPsyLing2022_Class2,44,36801,48,yes,1024,4
block4,natural,unrelated,WATER,92,92,765,765,black,no,4,Mozilla,Netscape,"5.0 (Macintosh; Intel Mac OS X 10_15_7) AppleWebKit/537.36 (KHTML, like Gecko) Chrome/107.0.0.0 Safari/537.36",psycho,natural,psycho,psycho,0,uniform,1,1,N,0,0,0,0,48,0,0,48,48,0,0,0,48,48,48,48,0,0,48,48,0,48,05-11-22,05-11-22,12:44:20,Mon Dec 05 2022 12:44:20 GMT+0100 (Centraleuropæisk normaltid),The main experiment item,yes,0,0,/Users/ethan/Documents/GitHub/OpenSesame/Class2,0,0,0,no,mono,no,18,no,white,no,no,768,1006,3.6.1,psycho,psycho,osweb,1.4.11,1,*****,269,,0,n,space,space,space,n,686,13550,5264,4250,686,2,psycho,900,1440,24,900,24,0,0,1440,1670238334814,1024,2,48000,-16,experiment,0,even,MacIntel,STONE,54,54,54,54,126174,48,126768,119474,53,13607,28852,127541,128239,127426,127508,54,127475,127541,ExPsyLing2022_Class2,45,37487,49,yes,1024,5
block4,manmade,unrelated,FROG,90,90,762,762,black,no,4,Mozilla,Netscape,"5.0 (Macintosh; Intel Mac OS X 10_15_7) AppleWebKit/537.36 (KHTML, like Gecko) Chrome/107.0.0.0 Safari/537.36",psycho,natural,psycho,psycho,0,uniform,0,0,M,0,0,0,0,49,0,0,49,49,0,0,0,49,49,49,49,0,0,49,49,0,49,05-11-22,05-11-22,12:44:20,Mon Dec 05 2022 12:44:20 GMT+0100 (Centraleuropæisk normaltid),The main experiment item,yes,0,0,/Users/ethan/Documents/GitHub/OpenSesame/Class2,0,0,0,no,mono,no,18,no,white,no,no,768,1006,3.6.1,psycho,psycho,osweb,1.4.11,1,*****,269,,0,n,space,space,space,n,620,13550,5264,4250,620,2,psycho,900,1440,24,900,24,0,0,1440,1670238334814,1024,2,48000,-16,experiment,0,even,MacIntel,LAMP,54,54,54,54,128240,48,128832,119474,53,13607,28852,129625,130257,129492,129575,54,129540,129625,ExPsyLing2022_Class2,45,38107,50,yes,1024,4
block4,manmade,exact,CANDY,88,88,787,787,black,no,4,Mozilla,Netscape,"5.0 (Macintosh; Intel Mac OS X 10_15_7) AppleWebKit/537.36 (KHTML, like Gecko) Chrome/107.0.0.0 Safari/537.36",psycho,natural,psycho,psycho,0,uniform,0,0,M,0,0,0,0,50,0,0,50,50,0,0,0,50,50,50,50,0,0,50,50,0,50,05-11-22,05-11-22,12:44:20,Mon Dec 05 2022 12:44:20 GMT+0100 (Centraleuropæisk normaltid),The main experiment item,yes,0,0,/Users/ethan/Documents/GitHub/OpenSesame/Class2,0,0,0,no,mono,no,18,no,white,no,no,768,1006,3.6.1,psycho,psycho,osweb,1.4.11,1,*****,269,,0,None,space,space,space,None,2014,13550,5264,4250,2014,2,psycho,900,1440,24,900,24,0,0,1440,1670238334814,1024,2,48000,-16,experiment,0,even,MacIntel,CANDY,54,54,54,54,128240,48,130851,130258,53,13607,28852,131642,133658,131509,131592,54,131557,131642,ExPsyLing2022_Class2,45,40121,51,yes,1024,5
block4,manmade,two_modifications,)1SH,88,88,801,801,black,no,4,Mozilla,Netscape,"5.0 (Macintosh; Intel Mac OS X 10_15_7) AppleWebKit/537.36 (KHTML, like Gecko) Chrome/107.0.0.0 Safari/537.36",psycho,natural,psycho,psycho,0,uniform,1,1,M,0,0,0,0,51,0,0,51,51,0,0,0,51,51,51,51,0,0,51,51,0,51,05-11-22,05-11-22,12:44:20,Mon Dec 05 2022 12:44:20 GMT+0100 (Centraleuropæisk normaltid),The main experiment item,yes,0,0,/Users/ethan/Documents/GitHub/OpenSesame/Class2,0,0,0,no,mono,no,18,no,white,no,no,768,1006,3.6.1,psycho,psycho,osweb,1.4.11,1,*****,269,,0,m,space,space,space,m,1517,13550,5264,4250,1517,2,psycho,900,1440,24,900,24,0,0,1440,1670238334814,1024,2,48000,-16,experiment,0,even,MacIntel,DISH,54,54,54,54,128240,48,134250,133659,53,13607,28852,135041,136575,134909,134992,54,134958,135041,ExPsyLing2022_Class2,46,41638,52,yes,1024,4
block4,natural,exact,TIGER,89,89,803,803,black,no,4,Mozilla,Netscape,"5.0 (Macintosh; Intel Mac OS X 10_15_7) AppleWebKit/537.36 (KHTML, like Gecko) Chrome/107.0.0.0 Safari/537.36",psycho,natural,psycho,psycho,0,uniform,1,1,N,0,0,0,0,52,0,0,52,52,0,0,0,52,52,52,52,0,0,52,52,0,52,05-11-22,05-11-22,12:44:20,Mon Dec 05 2022 12:44:20 GMT+0100 (Centraleuropæisk normaltid),The main experiment item,yes,0,0,/Users/ethan/Documents/GitHub/OpenSesame/Class2,0,0,0,no,mono,no,18,no,white,no,no,768,1006,3.6.1,psycho,psycho,osweb,1.4.11,1,*****,269,,0,n,space,space,space,n,908,13550,5264,4250,908,2,psycho,900,1440,24,900,24,0,0,1440,1670238334814,1024,2,48000,-16,experiment,0,even,MacIntel,TIGER,54,54,54,54,136575,48,137167,133659,53,13607,28852,137958,138874,137826,137909,54,137875,137958,ExPsyLing2022_Class2,47,42546,53,yes,1024,5
block4,manmade,exact,PHONE,89,89,815,815,black,no,4,Mozilla,Netscape,"5.0 (Macintosh; Intel Mac OS X 10_15_7) AppleWebKit/537.36 (KHTML, like Gecko) Chrome/107.0.0.0 Safari/537.36",psycho,natural,psycho,psycho,0,uniform,1,1,M,0,0,0,0,53,0,0,53,53,0,0,0,53,53,53,53,0,0,53,53,0,53,05-11-22,05-11-22,12:44:20,Mon Dec 05 2022 12:44:20 GMT+0100 (Centraleuropæisk normaltid),The main experiment item,yes,0,0,/Users/ethan/Documents/GitHub/OpenSesame/Class2,0,0,0,no,mono,no,18,no,white,no,no,768,1006,3.6.1,psycho,psycho,osweb,1.4.11,1,*****,269,,0,m,space,space,space,m,1471,13550,5264,4250,1471,2,psycho,900,1440,24,900,24,0,0,1440,1670238334814,1024,2,48000,-16,experiment,0,even,MacIntel,PHONE,54,54,54,54,138875,48,139468,133659,53,13607,28852,140258,141742,140126,140209,54,140175,140258,ExPsyLing2022_Class2,48,44017,54,yes,1024,5
block4,natural,one_modification,TUN4,89,89,816,816,black,no,4,Mozilla,Netscape,"5.0 (Macintosh; Intel Mac OS X 10_15_7) AppleWebKit/537.36 (KHTML, like Gecko) Chrome/107.0.0.0 Safari/537.36",psycho,natural,psycho,psycho,0,uniform,1,1,N,0,0,0,0,54,0,0,54,54,0,0,0,54,54,54,54,0,0,54,54,0,54,05-11-22,05-11-22,12:44:20,Mon Dec 05 2022 12:44:20 GMT+0100 (Centraleuropæisk normaltid),The main experiment item,yes,0,0,/Users/ethan/Documents/GitHub/OpenSesame/Class2,0,0,0,no,mono,no,18,no,white,no,no,768,1006,3.6.1,psycho,psycho,osweb,1.4.11,1,*****,269,,0,n,space,space,space,n,853,13550,5264,4250,853,2,psycho,900,1440,24,900,24,0,0,1440,1670238334814,1024,2,48000,-16,experiment,0,even,MacIntel,TUNA,54,54,54,54,141743,48,142333,133659,53,13607,28852,143125,143991,142993,143076,54,143042,143125,ExPsyLing2022_Class2,49,44870,55,yes,1024,4
block4,manmade,unrelated,KNACK,89,89,814,814,black,no,4,Mozilla,Netscape,"5.0 (Macintosh; Intel Mac OS X 10_15_7) AppleWebKit/537.36 (KHTML, like Gecko) Chrome/107.0.0.0 Safari/537.36",psycho,natural,psycho,psycho,0,uniform,1,1,M,0,0,0,0,55,0,0,55,55,0,0,0,55,55,55,55,0,0,55,55,0,55,05-11-22,05-11-22,12:44:20,Mon Dec 05 2022 12:44:20 GMT+0100 (Centraleuropæisk normaltid),The main experiment item,yes,0,0,/Users/ethan/Documents/GitHub/OpenSesame/Class2,0,0,0,no,mono,no,18,no,white,no,no,768,1006,3.6.1,psycho,psycho,osweb,1.4.11,1,*****,269,,0,m,space,space,space,m,688,13550,5264,4250,688,2,psycho,900,1440,24,900,24,0,0,1440,1670238334814,1024,2,48000,-16,experiment,0,even,MacIntel,KNIFE,54,54,54,54,143992,48,144587,133659,53,13607,28852,145375,146073,145243,145327,54,145292,145375,ExPsyLing2022_Class2,50,45558,56,yes,1024,5
practice,,practice,,0,0,2013,2013,black,no,1,Mozilla,Netscape,"5.0 (Macintosh; Intel Mac OS X 10_15_7) AppleWebKit/605.1.15 (KHTML, like Gecko) Version/16.1 Safari/605.1.15",psycho,natural,psycho,psycho,0,uniform,0,0,N,0,0,0,0,0,0,0,0,0,0,0,0,0,0,0,0,0,0,0,0,0,0,05-11-22,05-11-22,11:11:20,Mon Dec 05 2022 11:11:20 GMT+0100 (Centraleuropæisk normaltid),The main experiment item,yes,0,0,/Users/ethan/Documents/GitHub/OpenSesame/Class2,0,0,0,no,mono,no,18,no,white,no,no,768,1004,3.6.1,psycho,psycho,osweb,1.4.11,1,*****,269,,0,None,m,m,,None,2013,17962,8239,,2013,2,psycho,786,1440,24,900,24,0,25,1440,1670235081703,1024,2,48000,-16,experiment,0,even,MacIntel,VINE,76,76,76,76,,69,26394,,76,18047,,27211,29225,27067,27162,76,27111,27211,ExPsyLing2022_Class2,0,2013,1,yes,1024,4
practice,,practice,,50,50,1418,1418,black,no,1,Mozilla,Netscape,"5.0 (Macintosh; Intel Mac OS X 10_15_7) AppleWebKit/605.1.15 (KHTML, like Gecko) Version/16.1 Safari/605.1.15",psycho,manmade,psycho,psycho,0,uniform,1,1,M,0,0,0,0,1,0,0,1,1,0,0,0,1,1,1,1,0,0,1,1,0,1,05-11-22,05-11-22,11:11:20,Mon Dec 05 2022 11:11:20 GMT+0100 (Centraleuropæisk normaltid),The main experiment item,yes,0,0,/Users/ethan/Documents/GitHub/OpenSesame/Class2,0,0,0,no,mono,no,18,no,white,no,no,768,1004,3.6.1,psycho,psycho,osweb,1.4.11,1,*****,269,,0,m,m,m,,m,822,17962,8239,,822,2,psycho,786,1440,24,900,24,0,25,1440,1670235081703,1024,2,48000,-16,experiment,0,even,MacIntel,BOAT,76,76,76,76,,69,29825,29233,76,18047,,30643,31475,30503,30595,76,30544,30643,ExPsyLing2022_Class2,1,2835,2,yes,1024,4
practice,,practice,,67,67,1265,1265,black,no,1,Mozilla,Netscape,"5.0 (Macintosh; Intel Mac OS X 10_15_7) AppleWebKit/605.1.15 (KHTML, like Gecko) Version/16.1 Safari/605.1.15",psycho,manmade,psycho,psycho,0,uniform,1,1,M,0,0,0,0,2,0,0,2,2,0,0,0,2,2,2,2,0,0,2,2,0,2,05-11-22,05-11-22,11:11:20,Mon Dec 05 2022 11:11:20 GMT+0100 (Centraleuropæisk normaltid),The main experiment item,yes,0,0,/Users/ethan/Documents/GitHub/OpenSesame/Class2,0,0,0,no,mono,no,18,no,white,no,no,768,1004,3.6.1,psycho,psycho,osweb,1.4.11,1,*****,269,,0,m,m,m,,m,959,17962,8239,,959,2,psycho,786,1440,24,900,24,0,25,1440,1670235081703,1024,2,48000,-16,experiment,0,even,MacIntel,STAIRS,76,76,76,76,31481,69,32071,29233,76,18047,,32860,33824,32731,32812,76,32777,32860,ExPsyLing2022_Class2,2,3794,3,yes,1024,6
practice,,practice,,75,75,1104,1104,black,no,1,Mozilla,Netscape,"5.0 (Macintosh; Intel Mac OS X 10_15_7) AppleWebKit/605.1.15 (KHTML, like Gecko) Version/16.1 Safari/605.1.15",psycho,natural,psycho,psycho,0,uniform,1,1,N,0,0,0,0,3,0,0,3,3,0,0,0,3,3,3,3,0,0,3,3,0,3,05-11-22,05-11-22,11:11:20,Mon Dec 05 2022 11:11:20 GMT+0100 (Centraleuropæisk normaltid),The main experiment item,yes,0,0,/Users/ethan/Documents/GitHub/OpenSesame/Class2,0,0,0,no,mono,no,18,no,white,no,no,768,1004,3.6.1,psycho,psycho,osweb,1.4.11,1,*****,269,,0,n,m,m,,n,623,17962,8239,,623,2,psycho,786,1440,24,900,24,0,25,1440,1670235081703,1024,2,48000,-16,experiment,0,even,MacIntel,ZEBRA,76,76,76,76,33829,69,34450,29233,76,18047,,35244,35875,35113,35196,76,35160,35244,ExPsyLing2022_Class2,3,4417,4,yes,1024,5
block1,natural,two_modifications,WO1|=,80,80,1055,1055,black,no,1,Mozilla,Netscape,"5.0 (Macintosh; Intel Mac OS X 10_15_7) AppleWebKit/605.1.15 (KHTML, like Gecko) Version/16.1 Safari/605.1.15",psycho,natural,psycho,psycho,0,uniform,1,1,N,0,0,0,0,4,0,0,4,4,0,0,0,4,4,4,4,0,0,4,4,0,4,05-11-22,05-11-22,11:11:20,Mon Dec 05 2022 11:11:20 GMT+0100 (Centraleuropæisk normaltid),The main experiment item,yes,0,0,/Users/ethan/Documents/GitHub/OpenSesame/Class2,0,0,0,no,mono,no,18,no,white,no,no,768,1004,3.6.1,psycho,psycho,osweb,1.4.11,1,*****,269,,0,n,m,m,m,n,860,17962,8239,5189,860,2,psycho,786,1440,24,900,24,0,25,1440,1670235081703,1024,2,48000,-16,experiment,0,even,MacIntel,WOLF,76,76,76,76,35881,69,41677,29233,76,18047,36400,42494,43357,42347,42444,76,42394,42494,ExPsyLing2022_Class2,4,5277,5,yes,1024,4
block1,manmade,unrelated,SHOE,83,83,1004,1004,black,no,1,Mozilla,Netscape,"5.0 (Macintosh; Intel Mac OS X 10_15_7) AppleWebKit/605.1.15 (KHTML, like Gecko) Version/16.1 Safari/605.1.15",psycho,natural,psycho,psycho,0,uniform,1,1,M,0,0,0,0,5,0,0,5,5,0,0,0,5,5,5,5,0,0,5,5,0,5,05-11-22,05-11-22,11:11:20,Mon Dec 05 2022 11:11:20 GMT+0100 (Centraleuropæisk normaltid),The main experiment item,yes,0,0,/Users/ethan/Documents/GitHub/OpenSesame/Class2,0,0,0,no,mono,no,18,no,white,no,no,768,1004,3.6.1,psycho,psycho,osweb,1.4.11,1,*****,269,,0,m,m,m,m,m,745,17962,8239,5189,745,2,psycho,786,1440,24,900,24,0,25,1440,1670235081703,1024,2,48000,-16,experiment,0,even,MacIntel,WALL,76,76,76,76,43362,69,43963,29233,76,18047,36400,44777,45523,44637,44730,76,44679,44777,ExPsyLing2022_Class2,5,6022,6,yes,1024,4
block1,natural,two_modifications,4PPL3,86,86,940,940,black,no,1,Mozilla,Netscape,"5.0 (Macintosh; Intel Mac OS X 10_15_7) AppleWebKit/605.1.15 (KHTML, like Gecko) Version/16.1 Safari/605.1.15",psycho,natural,psycho,psycho,0,uniform,1,1,N,0,0,0,0,6,0,0,6,6,0,0,0,6,6,6,6,0,0,6,6,0,6,05-11-22,05-11-22,11:11:20,Mon Dec 05 2022 11:11:20 GMT+0100 (Centraleuropæisk normaltid),The main experiment item,yes,0,0,/Users/ethan/Documents/GitHub/OpenSesame/Class2,0,0,0,no,mono,no,18,no,white,no,no,768,1004,3.6.1,psycho,psycho,osweb,1.4.11,1,*****,269,,0,n,m,m,m,n,558,17962,8239,5189,558,2,psycho,786,1440,24,900,24,0,25,1440,1670235081703,1024,2,48000,-16,experiment,0,even,MacIntel,APPLE,76,76,76,76,45530,69,46125,29233,76,18047,36400,46944,47508,46802,46894,76,46844,46944,ExPsyLing2022_Class2,6,6580,7,yes,1024,5
