Block,Category,Mod_level,Prime_word,acc,accuracy,average_response_time,avg_rt,background,bidi,block_picker,browser_codename,browser_name,browser_version,canvas_backend,category,clock_backend,color_backend,compensation,coordinates,correct,correct_keyboard_response,correct_response,count_block1,count_block2,count_block3,count_block4,count_correct,count_counter_balance,count_experiment,count_fixation,count_incorrect,count_instructions1,count_instructions2,count_instructions3,count_keyboard_response,count_logger,count_mask1,count_mask2,count_osweb,count_practice,count_prime,count_target,count_thanks,count_trial_sequence,date_startdate,date_startdateUTC,date_starttime,datetime,description,disable_garbage_collection,experiment_debug,experiment_parameters,experiment_path,experiment_pilot,experiment_taskname,experiment_taskversion,font_bold,font_family,font_italic,font_size,font_underline,foreground,form_clicks,fullscreen,height,jatosStudyResultId,jatosVersion,keyboard_backend,mouse_backend,opensesame_codename,opensesame_version,penwidth,prime,queryParams_batchId,queryParams_fbclid,queryParams_generalMultiple,repeat_cycle,response,response_instructions1,response_instructions2,response_instructions3,response_keyboard_response,response_time,response_time_instructions1,response_time_instructions2,response_time_instructions3,response_time_keyboard_response,round_decimals,sampler_backend,screen_availableHeight,screen_availableWidth,screen_colorDepth,screen_height,screen_pixelDepth,screen_screenX,screen_screenY,screen_width,sessionid,sound_buf_size,sound_channels,sound_freq,sound_sample_size,start,subject_nr,subject_parity,system_os,target,time_block1,time_block2,time_block3,time_block4,time_correct,time_counter_balance,time_fixation,time_incorrect,time_instructions1,time_instructions2,time_instructions3,time_keyboard_response,time_logger,time_mask1,time_mask2,time_practice,time_prime,time_target,title,total_correct,total_response_time,total_responses,uniform_coordinates,width,word_length
practice,,practice,,100,100,857,857,black,no,3,Mozilla,Netscape,"5.0 (Windows NT 10.0; Win64; x64) AppleWebKit/537.36 (KHTML, like Gecko) Chrome/107.0.0.0 Safari/537.36",psycho,natural,psycho,psycho,0,uniform,1,1,N,0,0,0,0,0,0,0,0,0,0,0,0,0,0,0,0,0,0,0,0,0,0,29-10-22,29-10-22,11:58:09,Tue Nov 29 2022 11:58:09 GMT+0100 (hora estándar de Europa central),The main experiment item,yes,0,0,/Users/ethan/Documents/GitHub/OpenSesame/Class2,0,0,0,no,mono,no,18,no,white,no,no,768,970,3.6.1,psycho,psycho,osweb,1.4.11,1,*****,265,,,0,n,space,space,,n,857,4562,5922,,857,2,psycho,824,1536,24,864,24,0,0,1536,1669719517958,1024,2,48000,-16,experiment,0,even,Win32,VINE,92,92,92,92,,90,10730,,92,4657,,11516,12381,11384,11467,92,11432,11516,ExPsyLing2022_Class2,1,857,1,yes,1024,4
practice,,practice,,100,100,809,809,black,no,3,Mozilla,Netscape,"5.0 (Windows NT 10.0; Win64; x64) AppleWebKit/537.36 (KHTML, like Gecko) Chrome/107.0.0.0 Safari/537.36",psycho,manmade,psycho,psycho,0,uniform,1,1,M,0,0,0,0,1,0,0,1,1,0,0,0,1,1,1,1,0,0,1,1,0,1,29-10-22,29-10-22,11:58:09,Tue Nov 29 2022 11:58:09 GMT+0100 (hora estándar de Europa central),The main experiment item,yes,0,0,/Users/ethan/Documents/GitHub/OpenSesame/Class2,0,0,0,no,mono,no,18,no,white,no,no,768,970,3.6.1,psycho,psycho,osweb,1.4.11,1,*****,265,,,0,m,space,space,,m,760,4562,5922,,760,2,psycho,824,1536,24,864,24,0,0,1536,1669719517958,1024,2,48000,-16,experiment,0,even,Win32,BOAT,92,92,92,92,12384,90,12991,,92,4657,,13780,14545,13648,13731,92,13697,13780,ExPsyLing2022_Class2,2,1617,2,yes,1024,4
practice,,practice,,100,100,877,877,black,no,3,Mozilla,Netscape,"5.0 (Windows NT 10.0; Win64; x64) AppleWebKit/537.36 (KHTML, like Gecko) Chrome/107.0.0.0 Safari/537.36",psycho,manmade,psycho,psycho,0,uniform,1,1,M,0,0,0,0,2,0,0,2,2,0,0,0,2,2,2,2,0,0,2,2,0,2,29-10-22,29-10-22,11:58:09,Tue Nov 29 2022 11:58:09 GMT+0100 (hora estándar de Europa central),The main experiment item,yes,0,0,/Users/ethan/Documents/GitHub/OpenSesame/Class2,0,0,0,no,mono,no,18,no,white,no,no,768,970,3.6.1,psycho,psycho,osweb,1.4.11,1,*****,265,,,0,m,space,space,,m,1014,4562,5922,,1014,2,psycho,824,1536,24,864,24,0,0,1536,1669719517958,1024,2,48000,-16,experiment,0,even,Win32,STAIRS,92,92,92,92,14547,90,15172,,92,4657,,15961,16976,15829,15913,92,15878,15961,ExPsyLing2022_Class2,3,2631,3,yes,1024,6
practice,,practice,,100,100,825,825,black,no,3,Mozilla,Netscape,"5.0 (Windows NT 10.0; Win64; x64) AppleWebKit/537.36 (KHTML, like Gecko) Chrome/107.0.0.0 Safari/537.36",psycho,natural,psycho,psycho,0,uniform,1,1,N,0,0,0,0,3,0,0,3,3,0,0,0,3,3,3,3,0,0,3,3,0,3,29-10-22,29-10-22,11:58:09,Tue Nov 29 2022 11:58:09 GMT+0100 (hora estándar de Europa central),The main experiment item,yes,0,0,/Users/ethan/Documents/GitHub/OpenSesame/Class2,0,0,0,no,mono,no,18,no,white,no,no,768,970,3.6.1,psycho,psycho,osweb,1.4.11,1,*****,265,,,0,n,space,space,,n,668,4562,5922,,668,2,psycho,824,1536,24,864,24,0,0,1536,1669719517958,1024,2,48000,-16,experiment,0,even,Win32,ZEBRA,92,92,92,92,16978,90,17617,,92,4657,,18409,19091,18277,18361,92,18326,18409,ExPsyLing2022_Class2,4,3299,4,yes,1024,5
block3,manmade,one_modification,LI$T,100,100,825,825,black,no,3,Mozilla,Netscape,"5.0 (Windows NT 10.0; Win64; x64) AppleWebKit/537.36 (KHTML, like Gecko) Chrome/107.0.0.0 Safari/537.36",psycho,natural,psycho,psycho,0,uniform,1,1,M,0,0,0,0,4,0,0,4,4,0,0,0,4,4,4,4,0,0,4,4,0,4,29-10-22,29-10-22,11:58:09,Tue Nov 29 2022 11:58:09 GMT+0100 (hora estándar de Europa central),The main experiment item,yes,0,0,/Users/ethan/Documents/GitHub/OpenSesame/Class2,0,0,0,no,mono,no,18,no,white,no,no,768,970,3.6.1,psycho,psycho,osweb,1.4.11,1,*****,265,,,0,m,space,space,space,m,827,4562,5922,2631,827,2,psycho,824,1536,24,864,24,0,0,1536,1669719517958,1024,2,48000,-16,experiment,0,even,Win32,LIST,92,92,92,92,19092,90,22348,,92,4657,19610,23138,23970,23006,23089,92,23055,23138,ExPsyLing2022_Class2,5,4126,5,yes,1024,4
block3,manmade,one_modification,C4NDY,83,83,802,802,black,no,3,Mozilla,Netscape,"5.0 (Windows NT 10.0; Win64; x64) AppleWebKit/537.36 (KHTML, like Gecko) Chrome/107.0.0.0 Safari/537.36",psycho,natural,psycho,psycho,0,uniform,0,0,M,0,0,0,0,5,0,0,5,5,0,0,0,5,5,5,5,0,0,5,5,0,5,29-10-22,29-10-22,11:58:09,Tue Nov 29 2022 11:58:09 GMT+0100 (hora estándar de Europa central),The main experiment item,yes,0,0,/Users/ethan/Documents/GitHub/OpenSesame/Class2,0,0,0,no,mono,no,18,no,white,no,no,768,970,3.6.1,psycho,psycho,osweb,1.4.11,1,*****,265,,,0,n,space,space,space,n,683,4562,5922,2631,683,2,psycho,824,1536,24,864,24,0,0,1536,1669719517958,1024,2,48000,-16,experiment,0,even,Win32,CANDY,92,92,92,92,23971,90,24609,,92,4657,19610,25403,26101,25271,25353,92,25319,25403,ExPsyLing2022_Class2,5,4809,6,yes,1024,5
block3,natural,unrelated,CATS,86,86,823,823,black,no,3,Mozilla,Netscape,"5.0 (Windows NT 10.0; Win64; x64) AppleWebKit/537.36 (KHTML, like Gecko) Chrome/107.0.0.0 Safari/537.36",psycho,natural,psycho,psycho,0,uniform,1,1,N,0,0,0,0,6,0,0,6,6,0,0,0,6,6,6,6,0,0,6,6,0,6,29-10-22,29-10-22,11:58:09,Tue Nov 29 2022 11:58:09 GMT+0100 (hora estándar de Europa central),The main experiment item,yes,0,0,/Users/ethan/Documents/GitHub/OpenSesame/Class2,0,0,0,no,mono,no,18,no,white,no,no,768,970,3.6.1,psycho,psycho,osweb,1.4.11,1,*****,265,,,0,n,space,space,space,n,950,4562,5922,2631,950,2,psycho,824,1536,24,864,24,0,0,1536,1669719517958,1024,2,48000,-16,experiment,0,even,Win32,MOON,92,92,92,92,23971,90,26738,26103,92,4657,19610,27534,28502,27402,27485,92,27451,27534,ExPsyLing2022_Class2,6,5759,7,yes,1024,4
block3,manmade,two_modifications,B411,88,88,862,862,black,no,3,Mozilla,Netscape,"5.0 (Windows NT 10.0; Win64; x64) AppleWebKit/537.36 (KHTML, like Gecko) Chrome/107.0.0.0 Safari/537.36",psycho,natural,psycho,psycho,0,uniform,1,1,M,0,0,0,0,7,0,0,7,7,0,0,0,7,7,7,7,0,0,7,7,0,7,29-10-22,29-10-22,11:58:09,Tue Nov 29 2022 11:58:09 GMT+0100 (hora estándar de Europa central),The main experiment item,yes,0,0,/Users/ethan/Documents/GitHub/OpenSesame/Class2,0,0,0,no,mono,no,18,no,white,no,no,768,970,3.6.1,psycho,psycho,osweb,1.4.11,1,*****,265,,,0,m,space,space,space,m,1133,4562,5922,2631,1133,2,psycho,824,1536,24,864,24,0,0,1536,1669719517958,1024,2,48000,-16,experiment,0,even,Win32,BALL,92,92,92,92,28504,90,29132,26103,92,4657,19610,29932,31080,29800,29883,92,29849,29932,ExPsyLing2022_Class2,7,6892,8,yes,1024,4
block3,natural,two_modifications,)U[K,89,89,853,853,black,no,3,Mozilla,Netscape,"5.0 (Windows NT 10.0; Win64; x64) AppleWebKit/537.36 (KHTML, like Gecko) Chrome/107.0.0.0 Safari/537.36",psycho,natural,psycho,psycho,0,uniform,1,1,N,0,0,0,0,8,0,0,8,8,0,0,0,8,8,8,8,0,0,8,8,0,8,29-10-22,29-10-22,11:58:09,Tue Nov 29 2022 11:58:09 GMT+0100 (hora estándar de Europa central),The main experiment item,yes,0,0,/Users/ethan/Documents/GitHub/OpenSesame/Class2,0,0,0,no,mono,no,18,no,white,no,no,768,970,3.6.1,psycho,psycho,osweb,1.4.11,1,*****,265,,,0,n,space,space,space,n,786,4562,5922,2631,786,2,psycho,824,1536,24,864,24,0,0,1536,1669719517958,1024,2,48000,-16,experiment,0,even,Win32,DUCK,92,92,92,92,31081,90,31724,26103,92,4657,19610,32513,33311,32380,32464,92,32429,32513,ExPsyLing2022_Class2,8,7678,9,yes,1024,4
block3,manmade,unrelated,HOME,90,90,850,850,black,no,3,Mozilla,Netscape,"5.0 (Windows NT 10.0; Win64; x64) AppleWebKit/537.36 (KHTML, like Gecko) Chrome/107.0.0.0 Safari/537.36",psycho,natural,psycho,psycho,0,uniform,1,1,M,0,0,0,0,9,0,0,9,9,0,0,0,9,9,9,9,0,0,9,9,0,9,29-10-22,29-10-22,11:58:09,Tue Nov 29 2022 11:58:09 GMT+0100 (hora estándar de Europa central),The main experiment item,yes,0,0,/Users/ethan/Documents/GitHub/OpenSesame/Class2,0,0,0,no,mono,no,18,no,white,no,no,768,970,3.6.1,psycho,psycho,osweb,1.4.11,1,*****,265,,,0,m,space,space,space,m,818,4562,5922,2631,818,2,psycho,824,1536,24,864,24,0,0,1536,1669719517958,1024,2,48000,-16,experiment,0,even,Win32,COAT,92,92,92,92,33313,90,33944,26103,92,4657,19610,34761,35592,34611,34711,92,34665,34761,ExPsyLing2022_Class2,9,8496,10,yes,1024,4
block3,manmade,two_modifications,/\\/\\A1L,91,91,835,835,black,no,3,Mozilla,Netscape,"5.0 (Windows NT 10.0; Win64; x64) AppleWebKit/537.36 (KHTML, like Gecko) Chrome/107.0.0.0 Safari/537.36",psycho,natural,psycho,psycho,0,uniform,1,1,M,0,0,0,0,10,0,0,10,10,0,0,0,10,10,10,10,0,0,10,10,0,10,29-10-22,29-10-22,11:58:09,Tue Nov 29 2022 11:58:09 GMT+0100 (hora estándar de Europa central),The main experiment item,yes,0,0,/Users/ethan/Documents/GitHub/OpenSesame/Class2,0,0,0,no,mono,no,18,no,white,no,no,768,970,3.6.1,psycho,psycho,osweb,1.4.11,1,*****,265,,,0,m,space,space,space,m,684,4562,5922,2631,684,2,psycho,824,1536,24,864,24,0,0,1536,1669719517958,1024,2,48000,-16,experiment,0,even,Win32,MAIL,92,92,92,92,35594,90,36231,26103,92,4657,19610,37025,37710,36893,36976,92,36942,37025,ExPsyLing2022_Class2,10,9180,11,yes,1024,4
block3,natural,two_modifications,LE4|=,92,92,821,821,black,no,3,Mozilla,Netscape,"5.0 (Windows NT 10.0; Win64; x64) AppleWebKit/537.36 (KHTML, like Gecko) Chrome/107.0.0.0 Safari/537.36",psycho,natural,psycho,psycho,0,uniform,1,1,N,0,0,0,0,11,0,0,11,11,0,0,0,11,11,11,11,0,0,11,11,0,11,29-10-22,29-10-22,11:58:09,Tue Nov 29 2022 11:58:09 GMT+0100 (hora estándar de Europa central),The main experiment item,yes,0,0,/Users/ethan/Documents/GitHub/OpenSesame/Class2,0,0,0,no,mono,no,18,no,white,no,no,768,970,3.6.1,psycho,psycho,osweb,1.4.11,1,*****,265,,,0,n,space,space,space,n,667,4562,5922,2631,667,2,psycho,824,1536,24,864,24,0,0,1536,1669719517958,1024,2,48000,-16,experiment,0,even,Win32,LEAF,92,92,92,92,37712,90,38326,26103,92,4657,19610,39123,39805,38991,39074,92,39040,39123,ExPsyLing2022_Class2,11,9847,12,yes,1024,4
block3,manmade,one_modification,CAK3,92,92,814,814,black,no,3,Mozilla,Netscape,"5.0 (Windows NT 10.0; Win64; x64) AppleWebKit/537.36 (KHTML, like Gecko) Chrome/107.0.0.0 Safari/537.36",psycho,natural,psycho,psycho,0,uniform,1,1,M,0,0,0,0,12,0,0,12,12,0,0,0,12,12,12,12,0,0,12,12,0,12,29-10-22,29-10-22,11:58:09,Tue Nov 29 2022 11:58:09 GMT+0100 (hora estándar de Europa central),The main experiment item,yes,0,0,/Users/ethan/Documents/GitHub/OpenSesame/Class2,0,0,0,no,mono,no,18,no,white,no,no,768,970,3.6.1,psycho,psycho,osweb,1.4.11,1,*****,265,,,0,m,space,space,space,m,737,4562,5922,2631,737,2,psycho,824,1536,24,864,24,0,0,1536,1669719517958,1024,2,48000,-16,experiment,0,even,Win32,CAKE,92,92,92,92,39806,90,40448,26103,92,4657,19610,41238,41986,41106,41190,92,41155,41238,ExPsyLing2022_Class2,12,10584,13,yes,1024,4
block3,manmade,unrelated,TOMB,93,93,811,811,black,no,3,Mozilla,Netscape,"5.0 (Windows NT 10.0; Win64; x64) AppleWebKit/537.36 (KHTML, like Gecko) Chrome/107.0.0.0 Safari/537.36",psycho,natural,psycho,psycho,0,uniform,1,1,M,0,0,0,0,13,0,0,13,13,0,0,0,13,13,13,13,0,0,13,13,0,13,29-10-22,29-10-22,11:58:09,Tue Nov 29 2022 11:58:09 GMT+0100 (hora estándar de Europa central),The main experiment item,yes,0,0,/Users/ethan/Documents/GitHub/OpenSesame/Class2,0,0,0,no,mono,no,18,no,white,no,no,768,970,3.6.1,psycho,psycho,osweb,1.4.11,1,*****,265,,,0,m,space,space,space,m,766,4562,5922,2631,766,2,psycho,824,1536,24,864,24,0,0,1536,1669719517958,1024,2,48000,-16,experiment,0,even,Win32,OVEN,92,92,92,92,41986,90,42634,26103,92,4657,19610,43419,44201,43287,43370,92,43336,43419,ExPsyLing2022_Class2,13,11350,14,yes,1024,4
block3,manmade,one_modification,1OCK,93,93,824,824,black,no,3,Mozilla,Netscape,"5.0 (Windows NT 10.0; Win64; x64) AppleWebKit/537.36 (KHTML, like Gecko) Chrome/107.0.0.0 Safari/537.36",psycho,natural,psycho,psycho,0,uniform,1,1,M,0,0,0,0,14,0,0,14,14,0,0,0,14,14,14,14,0,0,14,14,0,14,29-10-22,29-10-22,11:58:09,Tue Nov 29 2022 11:58:09 GMT+0100 (hora estándar de Europa central),The main experiment item,yes,0,0,/Users/ethan/Documents/GitHub/OpenSesame/Class2,0,0,0,no,mono,no,18,no,white,no,no,768,970,3.6.1,psycho,psycho,osweb,1.4.11,1,*****,265,,,0,m,space,space,space,m,1015,4562,5922,2631,1015,2,psycho,824,1536,24,864,24,0,0,1536,1669719517958,1024,2,48000,-16,experiment,0,even,Win32,LOCK,92,92,92,92,44202,90,44823,26103,92,4657,19610,45617,46649,45485,45568,92,45534,45617,ExPsyLing2022_Class2,14,12365,15,yes,1024,4
block3,natural,one_modification,TIG3R,94,94,818,818,black,no,3,Mozilla,Netscape,"5.0 (Windows NT 10.0; Win64; x64) AppleWebKit/537.36 (KHTML, like Gecko) Chrome/107.0.0.0 Safari/537.36",psycho,natural,psycho,psycho,0,uniform,1,1,N,0,0,0,0,15,0,0,15,15,0,0,0,15,15,15,15,0,0,15,15,0,15,29-10-22,29-10-22,11:58:09,Tue Nov 29 2022 11:58:09 GMT+0100 (hora estándar de Europa central),The main experiment item,yes,0,0,/Users/ethan/Documents/GitHub/OpenSesame/Class2,0,0,0,no,mono,no,18,no,white,no,no,768,970,3.6.1,psycho,psycho,osweb,1.4.11,1,*****,265,,,0,n,space,space,space,n,727,4562,5922,2631,727,2,psycho,824,1536,24,864,24,0,0,1536,1669719517958,1024,2,48000,-16,experiment,0,even,Win32,TIGER,92,92,92,92,46650,90,47286,26103,92,4657,19610,48081,48813,47949,48032,92,47998,48081,ExPsyLing2022_Class2,15,13092,16,yes,1024,5
block3,manmade,two_modifications,V4S3,94,94,819,819,black,no,3,Mozilla,Netscape,"5.0 (Windows NT 10.0; Win64; x64) AppleWebKit/537.36 (KHTML, like Gecko) Chrome/107.0.0.0 Safari/537.36",psycho,natural,psycho,psycho,0,uniform,1,1,M,0,0,0,0,16,0,0,16,16,0,0,0,16,16,16,16,0,0,16,16,0,16,29-10-22,29-10-22,11:58:09,Tue Nov 29 2022 11:58:09 GMT+0100 (hora estándar de Europa central),The main experiment item,yes,0,0,/Users/ethan/Documents/GitHub/OpenSesame/Class2,0,0,0,no,mono,no,18,no,white,no,no,768,970,3.6.1,psycho,psycho,osweb,1.4.11,1,*****,265,,,0,m,space,space,space,m,835,4562,5922,2631,835,2,psycho,824,1536,24,864,24,0,0,1536,1669719517958,1024,2,48000,-16,experiment,0,even,Win32,VASE,92,92,92,92,48815,90,49444,26103,92,4657,19610,50229,51078,50097,50180,92,50146,50229,ExPsyLing2022_Class2,16,13927,17,yes,1024,4
block3,manmade,exact,CAGE,94,94,816,816,black,no,3,Mozilla,Netscape,"5.0 (Windows NT 10.0; Win64; x64) AppleWebKit/537.36 (KHTML, like Gecko) Chrome/107.0.0.0 Safari/537.36",psycho,natural,psycho,psycho,0,uniform,1,1,M,0,0,0,0,17,0,0,17,17,0,0,0,17,17,17,17,0,0,17,17,0,17,29-10-22,29-10-22,11:58:09,Tue Nov 29 2022 11:58:09 GMT+0100 (hora estándar de Europa central),The main experiment item,yes,0,0,/Users/ethan/Documents/GitHub/OpenSesame/Class2,0,0,0,no,mono,no,18,no,white,no,no,768,970,3.6.1,psycho,psycho,osweb,1.4.11,1,*****,265,,,0,m,space,space,space,m,756,4562,5922,2631,756,2,psycho,824,1536,24,864,24,0,0,1536,1669719517958,1024,2,48000,-16,experiment,0,even,Win32,CAGE,92,92,92,92,51079,90,51700,26103,92,4657,19610,52494,53259,52361,52445,92,52411,52494,ExPsyLing2022_Class2,17,14683,18,yes,1024,4
block3,natural,two_modifications,T(_)N4,95,95,804,804,black,no,3,Mozilla,Netscape,"5.0 (Windows NT 10.0; Win64; x64) AppleWebKit/537.36 (KHTML, like Gecko) Chrome/107.0.0.0 Safari/537.36",psycho,natural,psycho,psycho,0,uniform,1,1,N,0,0,0,0,18,0,0,18,18,0,0,0,18,18,18,18,0,0,18,18,0,18,29-10-22,29-10-22,11:58:09,Tue Nov 29 2022 11:58:09 GMT+0100 (hora estándar de Europa central),The main experiment item,yes,0,0,/Users/ethan/Documents/GitHub/OpenSesame/Class2,0,0,0,no,mono,no,18,no,white,no,no,768,970,3.6.1,psycho,psycho,osweb,1.4.11,1,*****,265,,,0,n,space,space,space,n,600,4562,5922,2631,600,2,psycho,824,1536,24,864,24,0,0,1536,1669719517958,1024,2,48000,-16,experiment,0,even,Win32,TUNA,92,92,92,92,53261,90,53875,26103,92,4657,19610,54675,55290,54543,54626,92,54592,54675,ExPsyLing2022_Class2,18,15283,19,yes,1024,4
block3,natural,exact,PEAR,95,95,798,798,black,no,3,Mozilla,Netscape,"5.0 (Windows NT 10.0; Win64; x64) AppleWebKit/537.36 (KHTML, like Gecko) Chrome/107.0.0.0 Safari/537.36",psycho,natural,psycho,psycho,0,uniform,1,1,N,0,0,0,0,19,0,0,19,19,0,0,0,19,19,19,19,0,0,19,19,0,19,29-10-22,29-10-22,11:58:09,Tue Nov 29 2022 11:58:09 GMT+0100 (hora estándar de Europa central),The main experiment item,yes,0,0,/Users/ethan/Documents/GitHub/OpenSesame/Class2,0,0,0,no,mono,no,18,no,white,no,no,768,970,3.6.1,psycho,psycho,osweb,1.4.11,1,*****,265,,,0,n,space,space,space,n,684,4562,5922,2631,684,2,psycho,824,1536,24,864,24,0,0,1536,1669719517958,1024,2,48000,-16,experiment,0,even,Win32,PEAR,92,92,92,92,55292,90,55909,26103,92,4657,19610,56707,57405,56574,56658,92,56624,56707,ExPsyLing2022_Class2,19,15967,20,yes,1024,4
block3,natural,one_modification,1AMB,95,95,797,797,black,no,3,Mozilla,Netscape,"5.0 (Windows NT 10.0; Win64; x64) AppleWebKit/537.36 (KHTML, like Gecko) Chrome/107.0.0.0 Safari/537.36",psycho,natural,psycho,psycho,0,uniform,1,1,N,0,0,0,0,20,0,0,20,20,0,0,0,20,20,20,20,0,0,20,20,0,20,29-10-22,29-10-22,11:58:09,Tue Nov 29 2022 11:58:09 GMT+0100 (hora estándar de Europa central),The main experiment item,yes,0,0,/Users/ethan/Documents/GitHub/OpenSesame/Class2,0,0,0,no,mono,no,18,no,white,no,no,768,970,3.6.1,psycho,psycho,osweb,1.4.11,1,*****,265,,,0,n,space,space,space,n,777,4562,5922,2631,777,2,psycho,824,1536,24,864,24,0,0,1536,1669719517958,1024,2,48000,-16,experiment,0,even,Win32,LAMB,92,92,92,92,57407,90,58035,26103,92,4657,19610,58821,59603,58689,58772,92,58738,58821,ExPsyLing2022_Class2,20,16744,21,yes,1024,4
block3,manmade,exact,PAPER,95,95,797,797,black,no,3,Mozilla,Netscape,"5.0 (Windows NT 10.0; Win64; x64) AppleWebKit/537.36 (KHTML, like Gecko) Chrome/107.0.0.0 Safari/537.36",psycho,natural,psycho,psycho,0,uniform,1,1,M,0,0,0,0,21,0,0,21,21,0,0,0,21,21,21,21,0,0,21,21,0,21,29-10-22,29-10-22,11:58:09,Tue Nov 29 2022 11:58:09 GMT+0100 (hora estándar de Europa central),The main experiment item,yes,0,0,/Users/ethan/Documents/GitHub/OpenSesame/Class2,0,0,0,no,mono,no,18,no,white,no,no,768,970,3.6.1,psycho,psycho,osweb,1.4.11,1,*****,265,,,0,m,space,space,space,m,800,4562,5922,2631,800,2,psycho,824,1536,24,864,24,0,0,1536,1669719517958,1024,2,48000,-16,experiment,0,even,Win32,PAPER,92,92,92,92,59604,90,60234,26103,92,4657,19610,61019,61834,60887,60970,92,60936,61019,ExPsyLing2022_Class2,21,17544,22,yes,1024,5
block3,manmade,unrelated,TENT,96,96,793,793,black,no,3,Mozilla,Netscape,"5.0 (Windows NT 10.0; Win64; x64) AppleWebKit/537.36 (KHTML, like Gecko) Chrome/107.0.0.0 Safari/537.36",psycho,natural,psycho,psycho,0,uniform,1,1,M,0,0,0,0,22,0,0,22,22,0,0,0,22,22,22,22,0,0,22,22,0,22,29-10-22,29-10-22,11:58:09,Tue Nov 29 2022 11:58:09 GMT+0100 (hora estándar de Europa central),The main experiment item,yes,0,0,/Users/ethan/Documents/GitHub/OpenSesame/Class2,0,0,0,no,mono,no,18,no,white,no,no,768,970,3.6.1,psycho,psycho,osweb,1.4.11,1,*****,265,,,0,m,space,space,space,m,692,4562,5922,2631,692,2,psycho,824,1536,24,864,24,0,0,1536,1669719517958,1024,2,48000,-16,experiment,0,even,Win32,SHOE,92,92,92,92,61836,90,62461,26103,92,4657,19610,63251,63949,63118,63202,92,63167,63251,ExPsyLing2022_Class2,22,18236,23,yes,1024,4
block3,manmade,one_modification,TOjS,96,96,789,789,black,no,3,Mozilla,Netscape,"5.0 (Windows NT 10.0; Win64; x64) AppleWebKit/537.36 (KHTML, like Gecko) Chrome/107.0.0.0 Safari/537.36",psycho,natural,psycho,psycho,0,uniform,1,1,M,0,0,0,0,23,0,0,23,23,0,0,0,23,23,23,23,0,0,23,23,0,23,29-10-22,29-10-22,11:58:09,Tue Nov 29 2022 11:58:09 GMT+0100 (hora estándar de Europa central),The main experiment item,yes,0,0,/Users/ethan/Documents/GitHub/OpenSesame/Class2,0,0,0,no,mono,no,18,no,white,no,no,768,970,3.6.1,psycho,psycho,osweb,1.4.11,1,*****,265,,,0,m,space,space,space,m,706,4562,5922,2631,706,2,psycho,824,1536,24,864,24,0,0,1536,1669719517958,1024,2,48000,-16,experiment,0,even,Win32,TOYS,92,92,92,92,63950,90,64562,26103,92,4657,19610,65349,66064,65216,65300,92,65266,65349,ExPsyLing2022_Class2,23,18942,24,yes,1024,4
block3,natural,one_modification,W4TER,96,96,786,786,black,no,3,Mozilla,Netscape,"5.0 (Windows NT 10.0; Win64; x64) AppleWebKit/537.36 (KHTML, like Gecko) Chrome/107.0.0.0 Safari/537.36",psycho,natural,psycho,psycho,0,uniform,1,1,N,0,0,0,0,24,0,0,24,24,0,0,0,24,24,24,24,0,0,24,24,0,24,29-10-22,29-10-22,11:58:09,Tue Nov 29 2022 11:58:09 GMT+0100 (hora estándar de Europa central),The main experiment item,yes,0,0,/Users/ethan/Documents/GitHub/OpenSesame/Class2,0,0,0,no,mono,no,18,no,white,no,no,768,970,3.6.1,psycho,psycho,osweb,1.4.11,1,*****,265,,,0,n,space,space,space,n,709,4562,5922,2631,709,2,psycho,824,1536,24,864,24,0,0,1536,1669719517958,1024,2,48000,-16,experiment,0,even,Win32,WATER,92,92,92,92,66065,90,66695,26103,92,4657,19610,67480,68195,67348,67431,92,67397,67480,ExPsyLing2022_Class2,24,19651,25,yes,1024,5
block3,manmade,exact,KNIFE,96,96,786,786,black,no,3,Mozilla,Netscape,"5.0 (Windows NT 10.0; Win64; x64) AppleWebKit/537.36 (KHTML, like Gecko) Chrome/107.0.0.0 Safari/537.36",psycho,natural,psycho,psycho,0,uniform,1,1,M,0,0,0,0,25,0,0,25,25,0,0,0,25,25,25,25,0,0,25,25,0,25,29-10-22,29-10-22,11:58:09,Tue Nov 29 2022 11:58:09 GMT+0100 (hora estándar de Europa central),The main experiment item,yes,0,0,/Users/ethan/Documents/GitHub/OpenSesame/Class2,0,0,0,no,mono,no,18,no,white,no,no,768,970,3.6.1,psycho,psycho,osweb,1.4.11,1,*****,265,,,0,m,space,space,space,m,777,4562,5922,2631,777,2,psycho,824,1536,24,864,24,0,0,1536,1669719517958,1024,2,48000,-16,experiment,0,even,Win32,KNIFE,92,92,92,92,68196,90,68828,26103,92,4657,19610,69628,70410,69496,69579,92,69545,69628,ExPsyLing2022_Class2,25,20428,26,yes,1024,5
block3,manmade,unrelated,TRICK,96,96,794,794,black,no,3,Mozilla,Netscape,"5.0 (Windows NT 10.0; Win64; x64) AppleWebKit/537.36 (KHTML, like Gecko) Chrome/107.0.0.0 Safari/537.36",psycho,natural,psycho,psycho,0,uniform,1,1,M,0,0,0,0,26,0,0,26,26,0,0,0,26,26,26,26,0,0,26,26,0,26,29-10-22,29-10-22,11:58:09,Tue Nov 29 2022 11:58:09 GMT+0100 (hora estándar de Europa central),The main experiment item,yes,0,0,/Users/ethan/Documents/GitHub/OpenSesame/Class2,0,0,0,no,mono,no,18,no,white,no,no,768,970,3.6.1,psycho,psycho,osweb,1.4.11,1,*****,265,,,0,m,space,space,space,m,1013,4562,5922,2631,1013,2,psycho,824,1536,24,864,24,0,0,1536,1669719517958,1024,2,48000,-16,experiment,0,even,Win32,BREAD,92,92,92,92,70411,90,71016,26103,92,4657,19610,71809,72824,71677,71760,92,71726,71809,ExPsyLing2022_Class2,26,21441,27,yes,1024,5
block3,natural,unrelated,RIGHT,96,96,789,789,black,no,3,Mozilla,Netscape,"5.0 (Windows NT 10.0; Win64; x64) AppleWebKit/537.36 (KHTML, like Gecko) Chrome/107.0.0.0 Safari/537.36",psycho,natural,psycho,psycho,0,uniform,1,1,N,0,0,0,0,27,0,0,27,27,0,0,0,27,27,27,27,0,0,27,27,0,27,29-10-22,29-10-22,11:58:09,Tue Nov 29 2022 11:58:09 GMT+0100 (hora estándar de Europa central),The main experiment item,yes,0,0,/Users/ethan/Documents/GitHub/OpenSesame/Class2,0,0,0,no,mono,no,18,no,white,no,no,768,970,3.6.1,psycho,psycho,osweb,1.4.11,1,*****,265,,,0,n,space,space,space,n,657,4562,5922,2631,657,2,psycho,824,1536,24,864,24,0,0,1536,1669719517958,1024,2,48000,-16,experiment,0,even,Win32,SHEEP,92,92,92,92,72825,90,73438,26103,92,4657,19610,74224,74889,74091,74175,92,74141,74224,ExPsyLing2022_Class2,27,22098,28,yes,1024,5
block3,natural,exact,STONE,97,97,790,790,black,no,3,Mozilla,Netscape,"5.0 (Windows NT 10.0; Win64; x64) AppleWebKit/537.36 (KHTML, like Gecko) Chrome/107.0.0.0 Safari/537.36",psycho,natural,psycho,psycho,0,uniform,1,1,N,0,0,0,0,28,0,0,28,28,0,0,0,28,28,28,28,0,0,28,28,0,28,29-10-22,29-10-22,11:58:09,Tue Nov 29 2022 11:58:09 GMT+0100 (hora estándar de Europa central),The main experiment item,yes,0,0,/Users/ethan/Documents/GitHub/OpenSesame/Class2,0,0,0,no,mono,no,18,no,white,no,no,768,970,3.6.1,psycho,psycho,osweb,1.4.11,1,*****,265,,,0,n,space,space,space,n,811,4562,5922,2631,811,2,psycho,824,1536,24,864,24,0,0,1536,1669719517958,1024,2,48000,-16,experiment,0,even,Win32,STONE,92,92,92,92,74890,90,75533,26103,92,4657,19610,76322,77137,76189,76273,92,76239,76322,ExPsyLing2022_Class2,28,22909,29,yes,1024,5
block3,manmade,exact,SINK,97,97,796,796,black,no,3,Mozilla,Netscape,"5.0 (Windows NT 10.0; Win64; x64) AppleWebKit/537.36 (KHTML, like Gecko) Chrome/107.0.0.0 Safari/537.36",psycho,natural,psycho,psycho,0,uniform,1,1,M,0,0,0,0,29,0,0,29,29,0,0,0,29,29,29,29,0,0,29,29,0,29,29-10-22,29-10-22,11:58:09,Tue Nov 29 2022 11:58:09 GMT+0100 (hora estándar de Europa central),The main experiment item,yes,0,0,/Users/ethan/Documents/GitHub/OpenSesame/Class2,0,0,0,no,mono,no,18,no,white,no,no,768,970,3.6.1,psycho,psycho,osweb,1.4.11,1,*****,265,,,0,m,space,space,space,m,984,4562,5922,2631,984,2,psycho,824,1536,24,864,24,0,0,1536,1669719517958,1024,2,48000,-16,experiment,0,even,Win32,SINK,92,92,92,92,77138,90,77771,26103,92,4657,19610,78569,79568,78444,78520,92,78486,78569,ExPsyLing2022_Class2,29,23893,30,yes,1024,4
block3,natural,unrelated,FROG,97,97,799,799,black,no,3,Mozilla,Netscape,"5.0 (Windows NT 10.0; Win64; x64) AppleWebKit/537.36 (KHTML, like Gecko) Chrome/107.0.0.0 Safari/537.36",psycho,natural,psycho,psycho,0,uniform,1,1,N,0,0,0,0,30,0,0,30,30,0,0,0,30,30,30,30,0,0,30,30,0,30,29-10-22,29-10-22,11:58:09,Tue Nov 29 2022 11:58:09 GMT+0100 (hora estándar de Europa central),The main experiment item,yes,0,0,/Users/ethan/Documents/GitHub/OpenSesame/Class2,0,0,0,no,mono,no,18,no,white,no,no,768,970,3.6.1,psycho,psycho,osweb,1.4.11,1,*****,265,,,0,n,space,space,space,n,875,4562,5922,2631,875,2,psycho,824,1536,24,864,24,0,0,1536,1669719517958,1024,2,48000,-16,experiment,0,even,Win32,SNOW,92,92,92,92,79569,90,80168,26103,92,4657,19610,80967,81849,80835,80918,92,80884,80967,ExPsyLing2022_Class2,30,24768,31,yes,1024,4
block3,manmade,two_modifications,|*1ZZA,97,97,795,795,black,no,3,Mozilla,Netscape,"5.0 (Windows NT 10.0; Win64; x64) AppleWebKit/537.36 (KHTML, like Gecko) Chrome/107.0.0.0 Safari/537.36",psycho,natural,psycho,psycho,0,uniform,1,1,M,0,0,0,0,31,0,0,31,31,0,0,0,31,31,31,31,0,0,31,31,0,31,29-10-22,29-10-22,11:58:09,Tue Nov 29 2022 11:58:09 GMT+0100 (hora estándar de Europa central),The main experiment item,yes,0,0,/Users/ethan/Documents/GitHub/OpenSesame/Class2,0,0,0,no,mono,no,18,no,white,no,no,768,970,3.6.1,psycho,psycho,osweb,1.4.11,1,*****,265,,,0,m,space,space,space,m,676,4562,5922,2631,676,2,psycho,824,1536,24,864,24,0,0,1536,1669719517958,1024,2,48000,-16,experiment,0,even,Win32,PIZZA,92,92,92,92,81851,90,82491,26103,92,4657,19610,83282,83964,83150,83232,92,83199,83282,ExPsyLing2022_Class2,31,25444,32,yes,1024,5
block3,natural,exact,WOLF,97,97,792,792,black,no,3,Mozilla,Netscape,"5.0 (Windows NT 10.0; Win64; x64) AppleWebKit/537.36 (KHTML, like Gecko) Chrome/107.0.0.0 Safari/537.36",psycho,natural,psycho,psycho,0,uniform,1,1,N,0,0,0,0,32,0,0,32,32,0,0,0,32,32,32,32,0,0,32,32,0,32,29-10-22,29-10-22,11:58:09,Tue Nov 29 2022 11:58:09 GMT+0100 (hora estándar de Europa central),The main experiment item,yes,0,0,/Users/ethan/Documents/GitHub/OpenSesame/Class2,0,0,0,no,mono,no,18,no,white,no,no,768,970,3.6.1,psycho,psycho,osweb,1.4.11,1,*****,265,,,0,n,space,space,space,n,697,4562,5922,2631,697,2,psycho,824,1536,24,864,24,0,0,1536,1669719517958,1024,2,48000,-16,experiment,0,even,Win32,WOLF,92,92,92,92,83965,90,84595,26103,92,4657,19610,85380,86078,85248,85331,92,85297,85380,ExPsyLing2022_Class2,32,26141,33,yes,1024,4
block3,natural,unrelated,DEER,97,97,789,789,black,no,3,Mozilla,Netscape,"5.0 (Windows NT 10.0; Win64; x64) AppleWebKit/537.36 (KHTML, like Gecko) Chrome/107.0.0.0 Safari/537.36",psycho,natural,psycho,psycho,0,uniform,1,1,N,0,0,0,0,33,0,0,33,33,0,0,0,33,33,33,33,0,0,33,33,0,33,29-10-22,29-10-22,11:58:09,Tue Nov 29 2022 11:58:09 GMT+0100 (hora estándar de Europa central),The main experiment item,yes,0,0,/Users/ethan/Documents/GitHub/OpenSesame/Class2,0,0,0,no,mono,no,18,no,white,no,no,768,970,3.6.1,psycho,psycho,osweb,1.4.11,1,*****,265,,,0,n,space,space,space,n,683,4562,5922,2631,683,2,psycho,824,1536,24,864,24,0,0,1536,1669719517958,1024,2,48000,-16,experiment,0,even,Win32,CROW,92,92,92,92,86080,90,86707,26103,92,4657,19610,87494,88193,87363,87446,92,87411,87494,ExPsyLing2022_Class2,33,26824,34,yes,1024,4
block3,manmade,one_modification,P#ONE,97,97,785,785,black,no,3,Mozilla,Netscape,"5.0 (Windows NT 10.0; Win64; x64) AppleWebKit/537.36 (KHTML, like Gecko) Chrome/107.0.0.0 Safari/537.36",psycho,natural,psycho,psycho,0,uniform,1,1,M,0,0,0,0,34,0,0,34,34,0,0,0,34,34,34,34,0,0,34,34,0,34,29-10-22,29-10-22,11:58:09,Tue Nov 29 2022 11:58:09 GMT+0100 (hora estándar de Europa central),The main experiment item,yes,0,0,/Users/ethan/Documents/GitHub/OpenSesame/Class2,0,0,0,no,mono,no,18,no,white,no,no,768,970,3.6.1,psycho,psycho,osweb,1.4.11,1,*****,265,,,0,m,space,space,space,m,634,4562,5922,2631,634,2,psycho,824,1536,24,864,24,0,0,1536,1669719517958,1024,2,48000,-16,experiment,0,even,Win32,PHONE,92,92,92,92,88195,90,88825,26103,92,4657,19610,89626,90274,89494,89577,92,89543,89626,ExPsyLing2022_Class2,34,27458,35,yes,1024,5
block3,manmade,unrelated,SOCK,97,97,782,782,black,no,3,Mozilla,Netscape,"5.0 (Windows NT 10.0; Win64; x64) AppleWebKit/537.36 (KHTML, like Gecko) Chrome/107.0.0.0 Safari/537.36",psycho,natural,psycho,psycho,0,uniform,1,1,M,0,0,0,0,35,0,0,35,35,0,0,0,35,35,35,35,0,0,35,35,0,35,29-10-22,29-10-22,11:58:09,Tue Nov 29 2022 11:58:09 GMT+0100 (hora estándar de Europa central),The main experiment item,yes,0,0,/Users/ethan/Documents/GitHub/OpenSesame/Class2,0,0,0,no,mono,no,18,no,white,no,no,768,970,3.6.1,psycho,psycho,osweb,1.4.11,1,*****,265,,,0,m,space,space,space,m,704,4562,5922,2631,704,2,psycho,824,1536,24,864,24,0,0,1536,1669719517958,1024,2,48000,-16,experiment,0,even,Win32,BOOK,92,92,92,92,90276,90,90905,26103,92,4657,19610,91691,92406,91559,91642,92,91607,91691,ExPsyLing2022_Class2,35,28162,36,yes,1024,4
block3,natural,one_modification,^/UTS,97,97,779,779,black,no,3,Mozilla,Netscape,"5.0 (Windows NT 10.0; Win64; x64) AppleWebKit/537.36 (KHTML, like Gecko) Chrome/107.0.0.0 Safari/537.36",psycho,natural,psycho,psycho,0,uniform,1,1,N,0,0,0,0,36,0,0,36,36,0,0,0,36,36,36,36,0,0,36,36,0,36,29-10-22,29-10-22,11:58:09,Tue Nov 29 2022 11:58:09 GMT+0100 (hora estándar de Europa central),The main experiment item,yes,0,0,/Users/ethan/Documents/GitHub/OpenSesame/Class2,0,0,0,no,mono,no,18,no,white,no,no,768,970,3.6.1,psycho,psycho,osweb,1.4.11,1,*****,265,,,0,n,space,space,space,n,649,4562,5922,2631,649,2,psycho,824,1536,24,864,24,0,0,1536,1669719517958,1024,2,48000,-16,experiment,0,even,Win32,NUTS,92,92,92,92,92407,90,93044,26103,92,4657,19610,93839,94488,93707,93790,92,93755,93839,ExPsyLing2022_Class2,36,28811,37,yes,1024,4
block3,natural,one_modification,|*LUM,97,97,779,779,black,no,3,Mozilla,Netscape,"5.0 (Windows NT 10.0; Win64; x64) AppleWebKit/537.36 (KHTML, like Gecko) Chrome/107.0.0.0 Safari/537.36",psycho,natural,psycho,psycho,0,uniform,1,1,N,0,0,0,0,37,0,0,37,37,0,0,0,37,37,37,37,0,0,37,37,0,37,29-10-22,29-10-22,11:58:09,Tue Nov 29 2022 11:58:09 GMT+0100 (hora estándar de Europa central),The main experiment item,yes,0,0,/Users/ethan/Documents/GitHub/OpenSesame/Class2,0,0,0,no,mono,no,18,no,white,no,no,768,970,3.6.1,psycho,psycho,osweb,1.4.11,1,*****,265,,,0,n,space,space,space,n,783,4562,5922,2631,783,2,psycho,824,1536,24,864,24,0,0,1536,1669719517958,1024,2,48000,-16,experiment,0,even,Win32,PLUM,92,92,92,92,94490,90,95117,26103,92,4657,19610,95903,96702,95771,95855,92,95820,95903,ExPsyLing2022_Class2,37,29594,38,yes,1024,4
block3,natural,exact,EGGS,97,97,776,776,black,no,3,Mozilla,Netscape,"5.0 (Windows NT 10.0; Win64; x64) AppleWebKit/537.36 (KHTML, like Gecko) Chrome/107.0.0.0 Safari/537.36",psycho,natural,psycho,psycho,0,uniform,1,1,N,0,0,0,0,38,0,0,38,38,0,0,0,38,38,38,38,0,0,38,38,0,38,29-10-22,29-10-22,11:58:09,Tue Nov 29 2022 11:58:09 GMT+0100 (hora estándar de Europa central),The main experiment item,yes,0,0,/Users/ethan/Documents/GitHub/OpenSesame/Class2,0,0,0,no,mono,no,18,no,white,no,no,768,970,3.6.1,psycho,psycho,osweb,1.4.11,1,*****,265,,,0,n,space,space,space,n,664,4562,5922,2631,664,2,psycho,824,1536,24,864,24,0,0,1536,1669719517958,1024,2,48000,-16,experiment,0,even,Win32,EGGS,92,92,92,92,96704,90,97322,26103,92,4657,19610,98118,98783,97986,98069,92,98035,98118,ExPsyLing2022_Class2,38,30258,39,yes,1024,4
block3,manmade,unrelated,BOOT,98,98,780,780,black,no,3,Mozilla,Netscape,"5.0 (Windows NT 10.0; Win64; x64) AppleWebKit/537.36 (KHTML, like Gecko) Chrome/107.0.0.0 Safari/537.36",psycho,natural,psycho,psycho,0,uniform,1,1,M,0,0,0,0,39,0,0,39,39,0,0,0,39,39,39,39,0,0,39,39,0,39,29-10-22,29-10-22,11:58:09,Tue Nov 29 2022 11:58:09 GMT+0100 (hora estándar de Europa central),The main experiment item,yes,0,0,/Users/ethan/Documents/GitHub/OpenSesame/Class2,0,0,0,no,mono,no,18,no,white,no,no,768,970,3.6.1,psycho,psycho,osweb,1.4.11,1,*****,265,,,0,m,space,space,space,m,948,4562,5922,2631,948,2,psycho,824,1536,24,864,24,0,0,1536,1669719517958,1024,2,48000,-16,experiment,0,even,Win32,DISH,92,92,92,92,98785,90,99364,26103,92,4657,19610,100149,101098,100017,100101,92,100066,100149,ExPsyLing2022_Class2,39,31206,40,yes,1024,4
block3,natural,unrelated,PLOT,98,98,793,793,black,no,3,Mozilla,Netscape,"5.0 (Windows NT 10.0; Win64; x64) AppleWebKit/537.36 (KHTML, like Gecko) Chrome/107.0.0.0 Safari/537.36",psycho,natural,psycho,psycho,0,uniform,1,1,N,0,0,0,0,40,0,0,40,40,0,0,0,40,40,40,40,0,0,40,40,0,40,29-10-22,29-10-22,11:58:09,Tue Nov 29 2022 11:58:09 GMT+0100 (hora estándar de Europa central),The main experiment item,yes,0,0,/Users/ethan/Documents/GitHub/OpenSesame/Class2,0,0,0,no,mono,no,18,no,white,no,no,768,970,3.6.1,psycho,psycho,osweb,1.4.11,1,*****,265,,,0,n,space,space,space,n,1288,4562,5922,2631,1288,2,psycho,824,1536,24,864,24,0,0,1536,1669719517958,1024,2,48000,-16,experiment,0,even,Win32,BEAK,92,92,92,92,101099,90,101707,26103,92,4657,19610,102497,103795,102365,102448,92,102414,102497,ExPsyLing2022_Class2,40,32494,41,yes,1024,4
block3,natural,two_modifications,5N4IL,98,98,789,789,black,no,3,Mozilla,Netscape,"5.0 (Windows NT 10.0; Win64; x64) AppleWebKit/537.36 (KHTML, like Gecko) Chrome/107.0.0.0 Safari/537.36",psycho,natural,psycho,psycho,0,uniform,1,1,N,0,0,0,0,41,0,0,41,41,0,0,0,41,41,41,41,0,0,41,41,0,41,29-10-22,29-10-22,11:58:09,Tue Nov 29 2022 11:58:09 GMT+0100 (hora estándar de Europa central),The main experiment item,yes,0,0,/Users/ethan/Documents/GitHub/OpenSesame/Class2,0,0,0,no,mono,no,18,no,white,no,no,768,970,3.6.1,psycho,psycho,osweb,1.4.11,1,*****,265,,,0,n,space,space,space,n,655,4562,5922,2631,655,2,psycho,824,1536,24,864,24,0,0,1536,1669719517958,1024,2,48000,-16,experiment,0,even,Win32,SNAIL,92,92,92,92,103797,90,104427,26103,92,4657,19610,105245,105910,105096,105195,92,105150,105245,ExPsyLing2022_Class2,41,33149,42,yes,1024,5
block3,manmade,two_modifications,)E5K,98,98,786,786,black,no,3,Mozilla,Netscape,"5.0 (Windows NT 10.0; Win64; x64) AppleWebKit/537.36 (KHTML, like Gecko) Chrome/107.0.0.0 Safari/537.36",psycho,natural,psycho,psycho,0,uniform,1,1,M,0,0,0,0,42,0,0,42,42,0,0,0,42,42,42,42,0,0,42,42,0,42,29-10-22,29-10-22,11:58:09,Tue Nov 29 2022 11:58:09 GMT+0100 (hora estándar de Europa central),The main experiment item,yes,0,0,/Users/ethan/Documents/GitHub/OpenSesame/Class2,0,0,0,no,mono,no,18,no,white,no,no,768,970,3.6.1,psycho,psycho,osweb,1.4.11,1,*****,265,,,0,m,space,space,space,m,642,4562,5922,2631,642,2,psycho,824,1536,24,864,24,0,0,1536,1669719517958,1024,2,48000,-16,experiment,0,even,Win32,DESK,92,92,92,92,105911,90,106556,26103,92,4657,19610,107359,108008,107210,107310,92,107267,107359,ExPsyLing2022_Class2,42,33791,43,yes,1024,4
block3,natural,exact,CAMEL,98,98,783,783,black,no,3,Mozilla,Netscape,"5.0 (Windows NT 10.0; Win64; x64) AppleWebKit/537.36 (KHTML, like Gecko) Chrome/107.0.0.0 Safari/537.36",psycho,natural,psycho,psycho,0,uniform,1,1,N,0,0,0,0,43,0,0,43,43,0,0,0,43,43,43,43,0,0,43,43,0,43,29-10-22,29-10-22,11:58:09,Tue Nov 29 2022 11:58:09 GMT+0100 (hora estándar de Europa central),The main experiment item,yes,0,0,/Users/ethan/Documents/GitHub/OpenSesame/Class2,0,0,0,no,mono,no,18,no,white,no,no,768,970,3.6.1,psycho,psycho,osweb,1.4.11,1,*****,265,,,0,n,space,space,space,n,663,4562,5922,2631,663,2,psycho,824,1536,24,864,24,0,0,1536,1669719517958,1024,2,48000,-16,experiment,0,even,Win32,CAMEL,92,92,92,92,108009,90,108615,26103,92,4657,19610,109407,110072,109275,109358,92,109324,109407,ExPsyLing2022_Class2,43,34454,44,yes,1024,5
block3,manmade,two_modifications,TI2UC>|,98,98,782,782,black,no,3,Mozilla,Netscape,"5.0 (Windows NT 10.0; Win64; x64) AppleWebKit/537.36 (KHTML, like Gecko) Chrome/107.0.0.0 Safari/537.36",psycho,natural,psycho,psycho,0,uniform,1,1,M,0,0,0,0,44,0,0,44,44,0,0,0,44,44,44,44,0,0,44,44,0,44,29-10-22,29-10-22,11:58:09,Tue Nov 29 2022 11:58:09 GMT+0100 (hora estándar de Europa central),The main experiment item,yes,0,0,/Users/ethan/Documents/GitHub/OpenSesame/Class2,0,0,0,no,mono,no,18,no,white,no,no,768,970,3.6.1,psycho,psycho,osweb,1.4.11,1,*****,265,,,0,m,space,space,space,m,752,4562,5922,2631,752,2,psycho,824,1536,24,864,24,0,0,1536,1669719517958,1024,2,48000,-16,experiment,0,even,Win32,TRUCK,92,92,92,92,110074,90,110678,26103,92,4657,19610,111472,112237,111340,111423,92,111389,111472,ExPsyLing2022_Class2,44,35206,45,yes,1024,5
block3,natural,two_modifications,RA1^/,98,98,779,779,black,no,3,Mozilla,Netscape,"5.0 (Windows NT 10.0; Win64; x64) AppleWebKit/537.36 (KHTML, like Gecko) Chrome/107.0.0.0 Safari/537.36",psycho,natural,psycho,psycho,0,uniform,1,1,N,0,0,0,0,45,0,0,45,45,0,0,0,45,45,45,45,0,0,45,45,0,45,29-10-22,29-10-22,11:58:09,Tue Nov 29 2022 11:58:09 GMT+0100 (hora estándar de Europa central),The main experiment item,yes,0,0,/Users/ethan/Documents/GitHub/OpenSesame/Class2,0,0,0,no,mono,no,18,no,white,no,no,768,970,3.6.1,psycho,psycho,osweb,1.4.11,1,*****,265,,,0,n,space,space,space,n,641,4562,5922,2631,641,2,psycho,824,1536,24,864,24,0,0,1536,1669719517958,1024,2,48000,-16,experiment,0,even,Win32,RAIN,92,92,92,92,112239,90,112874,26103,92,4657,19610,113670,114318,113538,113621,92,113587,113670,ExPsyLing2022_Class2,45,35847,46,yes,1024,4
block3,natural,one_modification,B1RD,98,98,775,775,black,no,3,Mozilla,Netscape,"5.0 (Windows NT 10.0; Win64; x64) AppleWebKit/537.36 (KHTML, like Gecko) Chrome/107.0.0.0 Safari/537.36",psycho,natural,psycho,psycho,0,uniform,1,1,N,0,0,0,0,46,0,0,46,46,0,0,0,46,46,46,46,0,0,46,46,0,46,29-10-22,29-10-22,11:58:09,Tue Nov 29 2022 11:58:09 GMT+0100 (hora estándar de Europa central),The main experiment item,yes,0,0,/Users/ethan/Documents/GitHub/OpenSesame/Class2,0,0,0,no,mono,no,18,no,white,no,no,768,970,3.6.1,psycho,psycho,osweb,1.4.11,1,*****,265,,,0,n,space,space,space,n,589,4562,5922,2631,589,2,psycho,824,1536,24,864,24,0,0,1536,1669719517958,1024,2,48000,-16,experiment,0,even,Win32,BIRD,92,92,92,92,114320,90,114949,26103,92,4657,19610,115735,116334,115602,115686,92,115652,115735,ExPsyLing2022_Class2,46,36436,47,yes,1024,4
block3,manmade,two_modifications,P46E,98,98,780,780,black,no,3,Mozilla,Netscape,"5.0 (Windows NT 10.0; Win64; x64) AppleWebKit/537.36 (KHTML, like Gecko) Chrome/107.0.0.0 Safari/537.36",psycho,natural,psycho,psycho,0,uniform,1,1,M,0,0,0,0,47,0,0,47,47,0,0,0,47,47,47,47,0,0,47,47,0,47,29-10-22,29-10-22,11:58:09,Tue Nov 29 2022 11:58:09 GMT+0100 (hora estándar de Europa central),The main experiment item,yes,0,0,/Users/ethan/Documents/GitHub/OpenSesame/Class2,0,0,0,no,mono,no,18,no,white,no,no,768,970,3.6.1,psycho,psycho,osweb,1.4.11,1,*****,265,,,0,m,space,space,space,m,1007,4562,5922,2631,1007,2,psycho,824,1536,24,864,24,0,0,1536,1669719517958,1024,2,48000,-16,experiment,0,even,Win32,PAGE,92,92,92,92,116335,90,116976,26103,92,4657,19610,117766,118781,117635,117717,92,117683,117766,ExPsyLing2022_Class2,47,37443,48,yes,1024,4
block3,natural,one_modification,CA7S,98,98,777,777,black,no,3,Mozilla,Netscape,"5.0 (Windows NT 10.0; Win64; x64) AppleWebKit/537.36 (KHTML, like Gecko) Chrome/107.0.0.0 Safari/537.36",psycho,natural,psycho,psycho,0,uniform,1,1,N,0,0,0,0,48,0,0,48,48,0,0,0,48,48,48,48,0,0,48,48,0,48,29-10-22,29-10-22,11:58:09,Tue Nov 29 2022 11:58:09 GMT+0100 (hora estándar de Europa central),The main experiment item,yes,0,0,/Users/ethan/Documents/GitHub/OpenSesame/Class2,0,0,0,no,mono,no,18,no,white,no,no,768,970,3.6.1,psycho,psycho,osweb,1.4.11,1,*****,265,,,0,n,space,space,space,n,629,4562,5922,2631,629,2,psycho,824,1536,24,864,24,0,0,1536,1669719517958,1024,2,48000,-16,experiment,0,even,Win32,CATS,92,92,92,92,118783,90,119403,26103,92,4657,19610,120198,120829,120065,120149,92,120114,120198,ExPsyLing2022_Class2,48,38072,49,yes,1024,4
block3,manmade,exact,LAMP,98,98,780,780,black,no,3,Mozilla,Netscape,"5.0 (Windows NT 10.0; Win64; x64) AppleWebKit/537.36 (KHTML, like Gecko) Chrome/107.0.0.0 Safari/537.36",psycho,natural,psycho,psycho,0,uniform,1,1,M,0,0,0,0,49,0,0,49,49,0,0,0,49,49,49,49,0,0,49,49,0,49,29-10-22,29-10-22,11:58:09,Tue Nov 29 2022 11:58:09 GMT+0100 (hora estándar de Europa central),The main experiment item,yes,0,0,/Users/ethan/Documents/GitHub/OpenSesame/Class2,0,0,0,no,mono,no,18,no,white,no,no,768,970,3.6.1,psycho,psycho,osweb,1.4.11,1,*****,265,,,0,m,space,space,space,m,949,4562,5922,2631,949,2,psycho,824,1536,24,864,24,0,0,1536,1669719517958,1024,2,48000,-16,experiment,0,even,Win32,LAMP,92,92,92,92,120831,90,121461,26103,92,4657,19610,122262,123227,122130,122213,92,122179,122262,ExPsyLing2022_Class2,49,39021,50,yes,1024,4
block3,natural,exact,APPLE,98,98,777,777,black,no,3,Mozilla,Netscape,"5.0 (Windows NT 10.0; Win64; x64) AppleWebKit/537.36 (KHTML, like Gecko) Chrome/107.0.0.0 Safari/537.36",psycho,natural,psycho,psycho,0,uniform,1,1,N,0,0,0,0,50,0,0,50,50,0,0,0,50,50,50,50,0,0,50,50,0,50,29-10-22,29-10-22,11:58:09,Tue Nov 29 2022 11:58:09 GMT+0100 (hora estándar de Europa central),The main experiment item,yes,0,0,/Users/ethan/Documents/GitHub/OpenSesame/Class2,0,0,0,no,mono,no,18,no,white,no,no,768,970,3.6.1,psycho,psycho,osweb,1.4.11,1,*****,265,,,0,n,space,space,space,n,622,4562,5922,2631,622,2,psycho,824,1536,24,864,24,0,0,1536,1669719517958,1024,2,48000,-16,experiment,0,even,Win32,APPLE,92,92,92,92,123229,90,123869,26103,92,4657,19610,124660,125292,124528,124611,92,124577,124660,ExPsyLing2022_Class2,50,39643,51,yes,1024,5
block3,manmade,one_modification,W4LL,98,98,774,774,black,no,3,Mozilla,Netscape,"5.0 (Windows NT 10.0; Win64; x64) AppleWebKit/537.36 (KHTML, like Gecko) Chrome/107.0.0.0 Safari/537.36",psycho,natural,psycho,psycho,0,uniform,1,1,M,0,0,0,0,51,0,0,51,51,0,0,0,51,51,51,51,0,0,51,51,0,51,29-10-22,29-10-22,11:58:09,Tue Nov 29 2022 11:58:09 GMT+0100 (hora estándar de Europa central),The main experiment item,yes,0,0,/Users/ethan/Documents/GitHub/OpenSesame/Class2,0,0,0,no,mono,no,18,no,white,no,no,768,970,3.6.1,psycho,psycho,osweb,1.4.11,1,*****,265,,,0,m,space,space,space,m,627,4562,5922,2631,627,2,psycho,824,1536,24,864,24,0,0,1536,1669719517958,1024,2,48000,-16,experiment,0,even,Win32,WALL,92,92,92,92,125293,90,125923,26103,92,4657,19610,126708,127340,126575,126659,92,126625,126708,ExPsyLing2022_Class2,51,40270,52,yes,1024,4
block3,natural,two_modifications,P0–òY,98,98,771,771,black,no,3,Mozilla,Netscape,"5.0 (Windows NT 10.0; Win64; x64) AppleWebKit/537.36 (KHTML, like Gecko) Chrome/107.0.0.0 Safari/537.36",psycho,natural,psycho,psycho,0,uniform,1,1,N,0,0,0,0,52,0,0,52,52,0,0,0,52,52,52,52,0,0,52,52,0,52,29-10-22,29-10-22,11:58:09,Tue Nov 29 2022 11:58:09 GMT+0100 (hora estándar de Europa central),The main experiment item,yes,0,0,/Users/ethan/Documents/GitHub/OpenSesame/Class2,0,0,0,no,mono,no,18,no,white,no,no,768,970,3.6.1,psycho,psycho,osweb,1.4.11,1,*****,265,,,0,n,space,space,space,n,569,4562,5922,2631,569,2,psycho,824,1536,24,864,24,0,0,1536,1669719517958,1024,2,48000,-16,experiment,0,even,Win32,PONY,92,92,92,92,127341,90,127966,26103,92,4657,19610,128756,129338,128624,128707,92,128673,128756,ExPsyLing2022_Class2,52,40839,53,yes,1024,4
block3,natural,unrelated,BREAD,98,98,769,769,black,no,3,Mozilla,Netscape,"5.0 (Windows NT 10.0; Win64; x64) AppleWebKit/537.36 (KHTML, like Gecko) Chrome/107.0.0.0 Safari/537.36",psycho,natural,psycho,psycho,0,uniform,1,1,N,0,0,0,0,53,0,0,53,53,0,0,0,53,53,53,53,0,0,53,53,0,53,29-10-22,29-10-22,11:58:09,Tue Nov 29 2022 11:58:09 GMT+0100 (hora estándar de Europa central),The main experiment item,yes,0,0,/Users/ethan/Documents/GitHub/OpenSesame/Class2,0,0,0,no,mono,no,18,no,white,no,no,768,970,3.6.1,psycho,psycho,osweb,1.4.11,1,*****,265,,,0,n,space,space,space,n,666,4562,5922,2631,666,2,psycho,824,1536,24,864,24,0,0,1536,1669719517958,1024,2,48000,-16,experiment,0,even,Win32,DOGS,92,92,92,92,129339,90,129977,26103,92,4657,19610,130771,131453,130638,130721,92,130688,130771,ExPsyLing2022_Class2,53,41505,54,yes,1024,4
block3,manmade,exact,TOOL,98,98,765,765,black,no,3,Mozilla,Netscape,"5.0 (Windows NT 10.0; Win64; x64) AppleWebKit/537.36 (KHTML, like Gecko) Chrome/107.0.0.0 Safari/537.36",psycho,natural,psycho,psycho,0,uniform,1,1,M,0,0,0,0,54,0,0,54,54,0,0,0,54,54,54,54,0,0,54,54,0,54,29-10-22,29-10-22,11:58:09,Tue Nov 29 2022 11:58:09 GMT+0100 (hora estándar de Europa central),The main experiment item,yes,0,0,/Users/ethan/Documents/GitHub/OpenSesame/Class2,0,0,0,no,mono,no,18,no,white,no,no,768,970,3.6.1,psycho,psycho,osweb,1.4.11,1,*****,265,,,0,m,space,space,space,m,566,4562,5922,2631,566,2,psycho,824,1536,24,864,24,0,0,1536,1669719517958,1024,2,48000,-16,experiment,0,even,Win32,TOOL,92,92,92,92,131454,90,132083,26103,92,4657,19610,132869,133451,132736,132820,92,132786,132869,ExPsyLing2022_Class2,54,42071,55,yes,1024,4
block3,natural,two_modifications,S7OR/\/\,98,98,762,762,black,no,3,Mozilla,Netscape,"5.0 (Windows NT 10.0; Win64; x64) AppleWebKit/537.36 (KHTML, like Gecko) Chrome/107.0.0.0 Safari/537.36",psycho,natural,psycho,psycho,0,uniform,1,1,N,0,0,0,0,55,0,0,55,55,0,0,0,55,55,55,55,0,0,55,55,0,55,29-10-22,29-10-22,11:58:09,Tue Nov 29 2022 11:58:09 GMT+0100 (hora estándar de Europa central),The main experiment item,yes,0,0,/Users/ethan/Documents/GitHub/OpenSesame/Class2,0,0,0,no,mono,no,18,no,white,no,no,768,970,3.6.1,psycho,psycho,osweb,1.4.11,1,*****,265,,,0,n,space,space,space,n,594,4562,5922,2631,594,2,psycho,824,1536,24,864,24,0,0,1536,1669719517958,1024,2,48000,-16,experiment,0,even,Win32,STORM,92,92,92,92,133452,90,134094,26103,92,4657,19610,134884,135482,134751,134835,92,134800,134884,ExPsyLing2022_Class2,55,42665,56,yes,1024,4
practice,,practice,,100,100,1207,1207,black,no,3,Mozilla,Netscape,"5.0 (Windows NT 10.0; Win64; x64) AppleWebKit/537.36 (KHTML, like Gecko) Chrome/107.0.0.0 Safari/537.36",psycho,natural,psycho,psycho,0,uniform,1,1,N,0,0,0,0,0,0,0,0,0,0,0,0,0,0,0,0,0,0,0,0,0,0,28-10-22,28-10-22,20:45:32,Mon Nov 28 2022 20:45:32 GMT+0100 (heure normale d’Europe centrale),The main experiment item,yes,0,0,/Users/ethan/Documents/GitHub/OpenSesame/Class2,0,0,0,no,mono,no,18,no,white,no,no,768,936,3.6.1,psycho,psycho,osweb,1.4.11,1,*****,265,IwAR1vSM_qFNoc-geQ9tYRP4H8NV0WkiiwctAp6tkP7RmhPjHe8hMEaWgyWsY,,0,n,space,space,,n,1207,20148,5289,,1207,2,psycho,728,1366,24,768,24,0,0,1366,1669664760939,1024,2,48000,-16,experiment,0,even,Win32,VINE,95,95,95,95,,93,25705,,95,20266,,26530,27757,26385,26480,95,26432,26530,ExPsyLing2022_Class2,1,1207,1,yes,1024,4
practice,,practice,,100,100,1061,1061,black,no,3,Mozilla,Netscape,"5.0 (Windows NT 10.0; Win64; x64) AppleWebKit/537.36 (KHTML, like Gecko) Chrome/107.0.0.0 Safari/537.36",psycho,manmade,psycho,psycho,0,uniform,1,1,M,0,0,0,0,1,0,0,1,1,0,0,0,1,1,1,1,0,0,1,1,0,1,28-10-22,28-10-22,20:45:32,Mon Nov 28 2022 20:45:32 GMT+0100 (heure normale d’Europe centrale),The main experiment item,yes,0,0,/Users/ethan/Documents/GitHub/OpenSesame/Class2,0,0,0,no,mono,no,18,no,white,no,no,768,936,3.6.1,psycho,psycho,osweb,1.4.11,1,*****,265,IwAR1vSM_qFNoc-geQ9tYRP4H8NV0WkiiwctAp6tkP7RmhPjHe8hMEaWgyWsY,,0,m,space,space,,m,915,20148,5289,,915,2,psycho,728,1366,24,768,24,0,0,1366,1669664760939,1024,2,48000,-16,experiment,0,even,Win32,BOAT,95,95,95,95,27759,93,28386,,95,20266,,29206,30133,29061,29157,95,29121,29206,ExPsyLing2022_Class2,2,2122,2,yes,1024,4
practice,,practice,,100,100,1008,1008,black,no,3,Mozilla,Netscape,"5.0 (Windows NT 10.0; Win64; x64) AppleWebKit/537.36 (KHTML, like Gecko) Chrome/107.0.0.0 Safari/537.36",psycho,manmade,psycho,psycho,0,uniform,1,1,M,0,0,0,0,2,0,0,2,2,0,0,0,2,2,2,2,0,0,2,2,0,2,28-10-22,28-10-22,20:45:32,Mon Nov 28 2022 20:45:32 GMT+0100 (heure normale d’Europe centrale),The main experiment item,yes,0,0,/Users/ethan/Documents/GitHub/OpenSesame/Class2,0,0,0,no,mono,no,18,no,white,no,no,768,936,3.6.1,psycho,psycho,osweb,1.4.11,1,*****,265,IwAR1vSM_qFNoc-geQ9tYRP4H8NV0WkiiwctAp6tkP7RmhPjHe8hMEaWgyWsY,,0,m,space,space,,m,902,20148,5289,,902,2,psycho,728,1366,24,768,24,0,0,1366,1669664760939,1024,2,48000,-16,experiment,0,even,Win32,STAIRS,95,95,95,95,30134,93,30771,,95,20266,,31583,32509,31432,31535,95,31487,31582,ExPsyLing2022_Class2,3,3024,3,yes,1024,6
practice,,practice,,100,100,943,943,black,no,3,Mozilla,Netscape,"5.0 (Windows NT 10.0; Win64; x64) AppleWebKit/537.36 (KHTML, like Gecko) Chrome/107.0.0.0 Safari/537.36",psycho,natural,psycho,psycho,0,uniform,1,1,N,0,0,0,0,3,0,0,3,3,0,0,0,3,3,3,3,0,0,3,3,0,3,28-10-22,28-10-22,20:45:32,Mon Nov 28 2022 20:45:32 GMT+0100 (heure normale d’Europe centrale),The main experiment item,yes,0,0,/Users/ethan/Documents/GitHub/OpenSesame/Class2,0,0,0,no,mono,no,18,no,white,no,no,768,936,3.6.1,psycho,psycho,osweb,1.4.11,1,*****,265,IwAR1vSM_qFNoc-geQ9tYRP4H8NV0WkiiwctAp6tkP7RmhPjHe8hMEaWgyWsY,,0,n,space,space,,n,748,20148,5289,,748,2,psycho,728,1366,24,768,24,0,0,1366,1669664760939,1024,2,48000,-16,experiment,0,even,Win32,ZEBRA,95,95,95,95,32510,93,33106,,95,20266,,33915,34689,33764,33864,95,33808,33915,ExPsyLing2022_Class2,4,3772,4,yes,1024,5
block3,natural,exact,STONE,100,100,966,966,black,no,3,Mozilla,Netscape,"5.0 (Windows NT 10.0; Win64; x64) AppleWebKit/537.36 (KHTML, like Gecko) Chrome/107.0.0.0 Safari/537.36",psycho,natural,psycho,psycho,0,uniform,1,1,N,0,0,0,0,4,0,0,4,4,0,0,0,4,4,4,4,0,0,4,4,0,4,28-10-22,28-10-22,20:45:32,Mon Nov 28 2022 20:45:32 GMT+0100 (heure normale d’Europe centrale),The main experiment item,yes,0,0,/Users/ethan/Documents/GitHub/OpenSesame/Class2,0,0,0,no,mono,no,18,no,white,no,no,768,936,3.6.1,psycho,psycho,osweb,1.4.11,1,*****,265,IwAR1vSM_qFNoc-geQ9tYRP4H8NV0WkiiwctAp6tkP7RmhPjHe8hMEaWgyWsY,,0,n,space,space,n,n,1057,20148,5289,7445,1057,2,psycho,728,1366,24,768,24,0,0,1366,1669664760939,1024,2,48000,-16,experiment,0,even,Win32,STONE,95,95,95,95,34690,93,42759,,95,20266,35214,43564,44644,43413,43522,95,43461,43564,ExPsyLing2022_Class2,5,4829,5,yes,1024,5
block3,manmade,unrelated,SOCK,83,83,1012,1012,black,no,3,Mozilla,Netscape,"5.0 (Windows NT 10.0; Win64; x64) AppleWebKit/537.36 (KHTML, like Gecko) Chrome/107.0.0.0 Safari/537.36",psycho,natural,psycho,psycho,0,uniform,0,0,M,0,0,0,0,5,0,0,5,5,0,0,0,5,5,5,5,0,0,5,5,0,5,28-10-22,28-10-22,20:45:32,Mon Nov 28 2022 20:45:32 GMT+0100 (heure normale d’Europe centrale),The main experiment item,yes,0,0,/Users/ethan/Documents/GitHub/OpenSesame/Class2,0,0,0,no,mono,no,18,no,white,no,no,768,936,3.6.1,psycho,psycho,osweb,1.4.11,1,*****,265,IwAR1vSM_qFNoc-geQ9tYRP4H8NV0WkiiwctAp6tkP7RmhPjHe8hMEaWgyWsY,,0,n,space,space,n,n,1242,20148,5289,7445,1242,2,psycho,728,1366,24,768,24,0,0,1366,1669664760939,1024,2,48000,-16,experiment,0,even,Win32,BOOK,95,95,95,95,44645,93,45264,,95,20266,35214,46067,47320,45926,46021,95,45972,46067,ExPsyLing2022_Class2,5,6071,6,yes,1024,4
block3,manmade,exact,SINK,86,86,1052,1052,black,no,3,Mozilla,Netscape,"5.0 (Windows NT 10.0; Win64; x64) AppleWebKit/537.36 (KHTML, like Gecko) Chrome/107.0.0.0 Safari/537.36",psycho,natural,psycho,psycho,0,uniform,1,1,M,0,0,0,0,6,0,0,6,6,0,0,0,6,6,6,6,0,0,6,6,0,6,28-10-22,28-10-22,20:45:32,Mon Nov 28 2022 20:45:32 GMT+0100 (heure normale d’Europe centrale),The main experiment item,yes,0,0,/Users/ethan/Documents/GitHub/OpenSesame/Class2,0,0,0,no,mono,no,18,no,white,no,no,768,936,3.6.1,psycho,psycho,osweb,1.4.11,1,*****,265,IwAR1vSM_qFNoc-geQ9tYRP4H8NV0WkiiwctAp6tkP7RmhPjHe8hMEaWgyWsY,,0,m,space,space,n,m,1293,20148,5289,7445,1293,2,psycho,728,1366,24,768,24,0,0,1366,1669664760939,1024,2,48000,-16,experiment,0,even,Win32,SINK,95,95,95,95,44645,93,47916,47321,95,20266,35214,48720,50024,48574,48671,95,48621,48719,ExPsyLing2022_Class2,6,7364,7,yes,1024,4
block3,manmade,unrelated,HOME,88,88,1096,1096,black,no,3,Mozilla,Netscape,"5.0 (Windows NT 10.0; Win64; x64) AppleWebKit/537.36 (KHTML, like Gecko) Chrome/107.0.0.0 Safari/537.36",psycho,natural,psycho,psycho,0,uniform,1,1,M,0,0,0,0,7,0,0,7,7,0,0,0,7,7,7,7,0,0,7,7,0,7,28-10-22,28-10-22,20:45:32,Mon Nov 28 2022 20:45:32 GMT+0100 (heure normale d’Europe centrale),The main experiment item,yes,0,0,/Users/ethan/Documents/GitHub/OpenSesame/Class2,0,0,0,no,mono,no,18,no,white,no,no,768,936,3.6.1,psycho,psycho,osweb,1.4.11,1,*****,265,IwAR1vSM_qFNoc-geQ9tYRP4H8NV0WkiiwctAp6tkP7RmhPjHe8hMEaWgyWsY,,0,m,space,space,n,m,1402,20148,5289,7445,1402,2,psycho,728,1366,24,768,24,0,0,1366,1669664760939,1024,2,48000,-16,experiment,0,even,Win32,COAT,95,95,95,95,50024,93,50618,47321,95,20266,35214,51422,52850,51272,51374,95,51326,51422,ExPsyLing2022_Class2,7,8766,8,yes,1024,4
block3,natural,unrelated,CATS,89,89,1152,1152,black,no,3,Mozilla,Netscape,"5.0 (Windows NT 10.0; Win64; x64) AppleWebKit/537.36 (KHTML, like Gecko) Chrome/107.0.0.0 Safari/537.36",psycho,natural,psycho,psycho,0,uniform,1,1,N,0,0,0,0,8,0,0,8,8,0,0,0,8,8,8,8,0,0,8,8,0,8,28-10-22,28-10-22,20:45:32,Mon Nov 28 2022 20:45:32 GMT+0100 (heure normale d’Europe centrale),The main experiment item,yes,0,0,/Users/ethan/Documents/GitHub/OpenSesame/Class2,0,0,0,no,mono,no,18,no,white,no,no,768,936,3.6.1,psycho,psycho,osweb,1.4.11,1,*****,265,IwAR1vSM_qFNoc-geQ9tYRP4H8NV0WkiiwctAp6tkP7RmhPjHe8hMEaWgyWsY,,0,n,space,space,n,n,1604,20148,5289,7445,1604,2,psycho,728,1366,24,768,24,0,0,1366,1669664760939,1024,2,48000,-16,experiment,0,even,Win32,MOON,95,95,95,95,52851,93,53444,47321,95,20266,35214,54248,55876,54102,54200,95,54150,54248,ExPsyLing2022_Class2,8,10370,9,yes,1024,4
block3,natural,one_modification,CA7S,90,90,1161,1161,black,no,3,Mozilla,Netscape,"5.0 (Windows NT 10.0; Win64; x64) AppleWebKit/537.36 (KHTML, like Gecko) Chrome/107.0.0.0 Safari/537.36",psycho,natural,psycho,psycho,0,uniform,1,1,N,0,0,0,0,9,0,0,9,9,0,0,0,9,9,9,9,0,0,9,9,0,9,28-10-22,28-10-22,20:45:32,Mon Nov 28 2022 20:45:32 GMT+0100 (heure normale d’Europe centrale),The main experiment item,yes,0,0,/Users/ethan/Documents/GitHub/OpenSesame/Class2,0,0,0,no,mono,no,18,no,white,no,no,768,936,3.6.1,psycho,psycho,osweb,1.4.11,1,*****,265,IwAR1vSM_qFNoc-geQ9tYRP4H8NV0WkiiwctAp6tkP7RmhPjHe8hMEaWgyWsY,,0,n,space,space,n,n,1239,20148,5289,7445,1239,2,psycho,728,1366,24,768,24,0,0,1366,1669664760939,1024,2,48000,-16,experiment,0,even,Win32,CATS,95,95,95,95,55877,93,56471,47321,95,20266,35214,57276,58530,57130,57228,95,57179,57276,ExPsyLing2022_Class2,9,11609,10,yes,1024,4
block3,manmade,unrelated,BOOT,91,91,1173,1173,black,no,3,Mozilla,Netscape,"5.0 (Windows NT 10.0; Win64; x64) AppleWebKit/537.36 (KHTML, like Gecko) Chrome/107.0.0.0 Safari/537.36",psycho,natural,psycho,psycho,0,uniform,1,1,M,0,0,0,0,10,0,0,10,10,0,0,0,10,10,10,10,0,0,10,10,0,10,28-10-22,28-10-22,20:45:32,Mon Nov 28 2022 20:45:32 GMT+0100 (heure normale d’Europe centrale),The main experiment item,yes,0,0,/Users/ethan/Documents/GitHub/OpenSesame/Class2,0,0,0,no,mono,no,18,no,white,no,no,768,936,3.6.1,psycho,psycho,osweb,1.4.11,1,*****,265,IwAR1vSM_qFNoc-geQ9tYRP4H8NV0WkiiwctAp6tkP7RmhPjHe8hMEaWgyWsY,,0,m,space,space,n,m,1296,20148,5289,7445,1296,2,psycho,728,1366,24,768,24,0,0,1366,1669664760939,1024,2,48000,-16,experiment,0,even,Win32,DISH,95,95,95,95,58531,93,59147,47321,95,20266,35214,59951,61249,59799,59907,95,59851,59951,ExPsyLing2022_Class2,10,12905,11,yes,1024,4
block3,natural,one_modification,1AMB,92,92,1175,1175,black,no,3,Mozilla,Netscape,"5.0 (Windows NT 10.0; Win64; x64) AppleWebKit/537.36 (KHTML, like Gecko) Chrome/107.0.0.0 Safari/537.36",psycho,natural,psycho,psycho,0,uniform,1,1,N,0,0,0,0,11,0,0,11,11,0,0,0,11,11,11,11,0,0,11,11,0,11,28-10-22,28-10-22,20:45:32,Mon Nov 28 2022 20:45:32 GMT+0100 (heure normale d’Europe centrale),The main experiment item,yes,0,0,/Users/ethan/Documents/GitHub/OpenSesame/Class2,0,0,0,no,mono,no,18,no,white,no,no,768,936,3.6.1,psycho,psycho,osweb,1.4.11,1,*****,265,IwAR1vSM_qFNoc-geQ9tYRP4H8NV0WkiiwctAp6tkP7RmhPjHe8hMEaWgyWsY,,0,n,space,space,n,n,1196,20148,5289,7445,1196,2,psycho,728,1366,24,768,24,0,0,1366,1669664760939,1024,2,48000,-16,experiment,0,even,Win32,LAMB,95,95,95,95,61250,93,61892,47321,95,20266,35214,62706,63908,62559,62659,95,62609,62706,ExPsyLing2022_Class2,11,14101,12,yes,1024,4
block3,manmade,two_modifications,TI2UC>|,92,92,1161,1161,black,no,3,Mozilla,Netscape,"5.0 (Windows NT 10.0; Win64; x64) AppleWebKit/537.36 (KHTML, like Gecko) Chrome/107.0.0.0 Safari/537.36",psycho,natural,psycho,psycho,0,uniform,1,1,M,0,0,0,0,12,0,0,12,12,0,0,0,12,12,12,12,0,0,12,12,0,12,28-10-22,28-10-22,20:45:32,Mon Nov 28 2022 20:45:32 GMT+0100 (heure normale d’Europe centrale),The main experiment item,yes,0,0,/Users/ethan/Documents/GitHub/OpenSesame/Class2,0,0,0,no,mono,no,18,no,white,no,no,768,936,3.6.1,psycho,psycho,osweb,1.4.11,1,*****,265,IwAR1vSM_qFNoc-geQ9tYRP4H8NV0WkiiwctAp6tkP7RmhPjHe8hMEaWgyWsY,,0,m,space,space,n,m,996,20148,5289,7445,996,2,psycho,728,1366,24,768,24,0,0,1366,1669664760939,1024,2,48000,-16,experiment,0,even,Win32,TRUCK,95,95,95,95,63911,93,64574,47321,95,20266,35214,65384,66385,65234,65337,95,65285,65384,ExPsyLing2022_Class2,12,15097,13,yes,1024,5
block3,manmade,exact,TOOL,93,93,1166,1166,black,no,3,Mozilla,Netscape,"5.0 (Windows NT 10.0; Win64; x64) AppleWebKit/537.36 (KHTML, like Gecko) Chrome/107.0.0.0 Safari/537.36",psycho,natural,psycho,psycho,0,uniform,1,1,M,0,0,0,0,13,0,0,13,13,0,0,0,13,13,13,13,0,0,13,13,0,13,28-10-22,28-10-22,20:45:32,Mon Nov 28 2022 20:45:32 GMT+0100 (heure normale d’Europe centrale),The main experiment item,yes,0,0,/Users/ethan/Documents/GitHub/OpenSesame/Class2,0,0,0,no,mono,no,18,no,white,no,no,768,936,3.6.1,psycho,psycho,osweb,1.4.11,1,*****,265,IwAR1vSM_qFNoc-geQ9tYRP4H8NV0WkiiwctAp6tkP7RmhPjHe8hMEaWgyWsY,,0,m,space,space,n,m,1225,20148,5289,7445,1225,2,psycho,728,1366,24,768,24,0,0,1366,1669664760939,1024,2,48000,-16,experiment,0,even,Win32,TOOL,95,95,95,95,66388,93,67050,47321,95,20266,35214,67862,69110,67710,67815,95,67760,67862,ExPsyLing2022_Class2,13,16322,14,yes,1024,4
block3,natural,two_modifications,5N4IL,93,93,1139,1139,black,no,3,Mozilla,Netscape,"5.0 (Windows NT 10.0; Win64; x64) AppleWebKit/537.36 (KHTML, like Gecko) Chrome/107.0.0.0 Safari/537.36",psycho,natural,psycho,psycho,0,uniform,1,1,N,0,0,0,0,14,0,0,14,14,0,0,0,14,14,14,14,0,0,14,14,0,14,28-10-22,28-10-22,20:45:32,Mon Nov 28 2022 20:45:32 GMT+0100 (heure normale d’Europe centrale),The main experiment item,yes,0,0,/Users/ethan/Documents/GitHub/OpenSesame/Class2,0,0,0,no,mono,no,18,no,white,no,no,768,936,3.6.1,psycho,psycho,osweb,1.4.11,1,*****,265,IwAR1vSM_qFNoc-geQ9tYRP4H8NV0WkiiwctAp6tkP7RmhPjHe8hMEaWgyWsY,,0,n,space,space,n,n,763,20148,5289,7445,763,2,psycho,728,1366,24,768,24,0,0,1366,1669664760939,1024,2,48000,-16,experiment,0,even,Win32,SNAIL,95,95,95,95,69112,93,69771,47321,95,20266,35214,70591,71360,70440,70537,95,70486,70591,ExPsyLing2022_Class2,14,17085,15,yes,1024,5
block3,manmade,one_modification,TOjS,94,94,1113,1113,black,no,3,Mozilla,Netscape,"5.0 (Windows NT 10.0; Win64; x64) AppleWebKit/537.36 (KHTML, like Gecko) Chrome/107.0.0.0 Safari/537.36",psycho,natural,psycho,psycho,0,uniform,1,1,M,0,0,0,0,15,0,0,15,15,0,0,0,15,15,15,15,0,0,15,15,0,15,28-10-22,28-10-22,20:45:32,Mon Nov 28 2022 20:45:32 GMT+0100 (heure normale d’Europe centrale),The main experiment item,yes,0,0,/Users/ethan/Documents/GitHub/OpenSesame/Class2,0,0,0,no,mono,no,18,no,white,no,no,768,936,3.6.1,psycho,psycho,osweb,1.4.11,1,*****,265,IwAR1vSM_qFNoc-geQ9tYRP4H8NV0WkiiwctAp6tkP7RmhPjHe8hMEaWgyWsY,,0,m,space,space,n,m,718,20148,5289,7445,718,2,psycho,728,1366,24,768,24,0,0,1366,1669664760939,1024,2,48000,-16,experiment,0,even,Win32,TOYS,95,95,95,95,71362,93,72023,47321,95,20266,35214,72842,73565,72692,72788,95,72738,72841,ExPsyLing2022_Class2,15,17803,16,yes,1024,4
block3,manmade,one_modification,C4NDY,94,94,1098,1098,black,no,3,Mozilla,Netscape,"5.0 (Windows NT 10.0; Win64; x64) AppleWebKit/537.36 (KHTML, like Gecko) Chrome/107.0.0.0 Safari/537.36",psycho,natural,psycho,psycho,0,uniform,1,1,M,0,0,0,0,16,0,0,16,16,0,0,0,16,16,16,16,0,0,16,16,0,16,28-10-22,28-10-22,20:45:32,Mon Nov 28 2022 20:45:32 GMT+0100 (heure normale d’Europe centrale),The main experiment item,yes,0,0,/Users/ethan/Documents/GitHub/OpenSesame/Class2,0,0,0,no,mono,no,18,no,white,no,no,768,936,3.6.1,psycho,psycho,osweb,1.4.11,1,*****,265,IwAR1vSM_qFNoc-geQ9tYRP4H8NV0WkiiwctAp6tkP7RmhPjHe8hMEaWgyWsY,,0,m,space,space,n,m,860,20148,5289,7445,860,2,psycho,728,1366,24,768,24,0,0,1366,1669664760939,1024,2,48000,-16,experiment,0,even,Win32,CANDY,95,95,95,95,73566,93,74202,47321,95,20266,35214,74988,75863,74863,74943,95,74910,74988,ExPsyLing2022_Class2,16,18663,17,yes,1024,5
block3,natural,one_modification,W4TER,94,94,1095,1095,black,no,3,Mozilla,Netscape,"5.0 (Windows NT 10.0; Win64; x64) AppleWebKit/537.36 (KHTML, like Gecko) Chrome/107.0.0.0 Safari/537.36",psycho,natural,psycho,psycho,0,uniform,1,1,N,0,0,0,0,17,0,0,17,17,0,0,0,17,17,17,17,0,0,17,17,0,17,28-10-22,28-10-22,20:45:32,Mon Nov 28 2022 20:45:32 GMT+0100 (heure normale d’Europe centrale),The main experiment item,yes,0,0,/Users/ethan/Documents/GitHub/OpenSesame/Class2,0,0,0,no,mono,no,18,no,white,no,no,768,936,3.6.1,psycho,psycho,osweb,1.4.11,1,*****,265,IwAR1vSM_qFNoc-geQ9tYRP4H8NV0WkiiwctAp6tkP7RmhPjHe8hMEaWgyWsY,,0,n,space,space,n,n,1052,20148,5289,7445,1052,2,psycho,728,1366,24,768,24,0,0,1366,1669664760939,1024,2,48000,-16,experiment,0,even,Win32,WATER,95,95,95,95,75866,93,76551,47321,95,20266,35214,77368,78441,77218,77322,95,77264,77368,ExPsyLing2022_Class2,17,19715,18,yes,1024,5
block3,natural,two_modifications,)U[K,95,95,1075,1075,black,no,3,Mozilla,Netscape,"5.0 (Windows NT 10.0; Win64; x64) AppleWebKit/537.36 (KHTML, like Gecko) Chrome/107.0.0.0 Safari/537.36",psycho,natural,psycho,psycho,0,uniform,1,1,N,0,0,0,0,18,0,0,18,18,0,0,0,18,18,18,18,0,0,18,18,0,18,28-10-22,28-10-22,20:45:32,Mon Nov 28 2022 20:45:32 GMT+0100 (heure normale d’Europe centrale),The main experiment item,yes,0,0,/Users/ethan/Documents/GitHub/OpenSesame/Class2,0,0,0,no,mono,no,18,no,white,no,no,768,936,3.6.1,psycho,psycho,osweb,1.4.11,1,*****,265,IwAR1vSM_qFNoc-geQ9tYRP4H8NV0WkiiwctAp6tkP7RmhPjHe8hMEaWgyWsY,,0,n,space,space,n,n,706,20148,5289,7445,706,2,psycho,728,1366,24,768,24,0,0,1366,1669664760939,1024,2,48000,-16,experiment,0,even,Win32,DUCK,95,95,95,95,78444,93,79102,47321,95,20266,35214,79922,80643,79772,79873,95,79821,79921,ExPsyLing2022_Class2,18,20421,19,yes,1024,4
block3,natural,unrelated,PLOT,90,90,1077,1077,black,no,3,Mozilla,Netscape,"5.0 (Windows NT 10.0; Win64; x64) AppleWebKit/537.36 (KHTML, like Gecko) Chrome/107.0.0.0 Safari/537.36",psycho,natural,psycho,psycho,0,uniform,0,0,N,0,0,0,0,19,0,0,19,19,0,0,0,19,19,19,19,0,0,19,19,0,19,28-10-22,28-10-22,20:45:32,Mon Nov 28 2022 20:45:32 GMT+0100 (heure normale d’Europe centrale),The main experiment item,yes,0,0,/Users/ethan/Documents/GitHub/OpenSesame/Class2,0,0,0,no,mono,no,18,no,white,no,no,768,936,3.6.1,psycho,psycho,osweb,1.4.11,1,*****,265,IwAR1vSM_qFNoc-geQ9tYRP4H8NV0WkiiwctAp6tkP7RmhPjHe8hMEaWgyWsY,,0,m,space,space,n,m,1124,20148,5289,7445,1124,2,psycho,728,1366,24,768,24,0,0,1366,1669664760939,1024,2,48000,-16,experiment,0,even,Win32,BEAK,95,95,95,95,80645,93,81296,47321,95,20266,35214,82117,83243,81972,82071,95,82021,82117,ExPsyLing2022_Class2,18,21545,20,yes,1024,4
block3,natural,exact,WOLF,90,90,1064,1064,black,no,3,Mozilla,Netscape,"5.0 (Windows NT 10.0; Win64; x64) AppleWebKit/537.36 (KHTML, like Gecko) Chrome/107.0.0.0 Safari/537.36",psycho,natural,psycho,psycho,0,uniform,1,1,N,0,0,0,0,20,0,0,20,20,0,0,0,20,20,20,20,0,0,20,20,0,20,28-10-22,28-10-22,20:45:32,Mon Nov 28 2022 20:45:32 GMT+0100 (heure normale d’Europe centrale),The main experiment item,yes,0,0,/Users/ethan/Documents/GitHub/OpenSesame/Class2,0,0,0,no,mono,no,18,no,white,no,no,768,936,3.6.1,psycho,psycho,osweb,1.4.11,1,*****,265,IwAR1vSM_qFNoc-geQ9tYRP4H8NV0WkiiwctAp6tkP7RmhPjHe8hMEaWgyWsY,,0,n,space,space,n,n,804,20148,5289,7445,804,2,psycho,728,1366,24,768,24,0,0,1366,1669664760939,1024,2,48000,-16,experiment,0,even,Win32,WOLF,95,95,95,95,80645,93,83904,83245,95,20266,35214,84719,85546,84573,84673,95,84623,84719,ExPsyLing2022_Class2,19,22349,21,yes,1024,4
block3,manmade,unrelated,TRICK,91,91,1058,1058,black,no,3,Mozilla,Netscape,"5.0 (Windows NT 10.0; Win64; x64) AppleWebKit/537.36 (KHTML, like Gecko) Chrome/107.0.0.0 Safari/537.36",psycho,natural,psycho,psycho,0,uniform,1,1,M,0,0,0,0,21,0,0,21,21,0,0,0,21,21,21,21,0,0,21,21,0,21,28-10-22,28-10-22,20:45:32,Mon Nov 28 2022 20:45:32 GMT+0100 (heure normale d’Europe centrale),The main experiment item,yes,0,0,/Users/ethan/Documents/GitHub/OpenSesame/Class2,0,0,0,no,mono,no,18,no,white,no,no,768,936,3.6.1,psycho,psycho,osweb,1.4.11,1,*****,265,IwAR1vSM_qFNoc-geQ9tYRP4H8NV0WkiiwctAp6tkP7RmhPjHe8hMEaWgyWsY,,0,m,space,space,n,m,920,20148,5289,7445,920,2,psycho,728,1366,24,768,24,0,0,1366,1669664760939,1024,2,48000,-16,experiment,0,even,Win32,BREAD,95,95,95,95,85548,93,86217,83245,95,20266,35214,87023,87948,86874,86977,95,86920,87023,ExPsyLing2022_Class2,20,23269,22,yes,1024,5
block3,natural,exact,CAMEL,91,91,1058,1058,black,no,3,Mozilla,Netscape,"5.0 (Windows NT 10.0; Win64; x64) AppleWebKit/537.36 (KHTML, like Gecko) Chrome/107.0.0.0 Safari/537.36",psycho,natural,psycho,psycho,0,uniform,1,1,N,0,0,0,0,22,0,0,22,22,0,0,0,22,22,22,22,0,0,22,22,0,22,28-10-22,28-10-22,20:45:32,Mon Nov 28 2022 20:45:32 GMT+0100 (heure normale d’Europe centrale),The main experiment item,yes,0,0,/Users/ethan/Documents/GitHub/OpenSesame/Class2,0,0,0,no,mono,no,18,no,white,no,no,768,936,3.6.1,psycho,psycho,osweb,1.4.11,1,*****,265,IwAR1vSM_qFNoc-geQ9tYRP4H8NV0WkiiwctAp6tkP7RmhPjHe8hMEaWgyWsY,,0,n,space,space,n,n,1065,20148,5289,7445,1065,2,psycho,728,1366,24,768,24,0,0,1366,1669664760939,1024,2,48000,-16,experiment,0,even,Win32,CAMEL,95,95,95,95,87951,93,88617,83245,95,20266,35214,89423,90500,89277,89379,95,89328,89423,ExPsyLing2022_Class2,21,24334,23,yes,1024,5
block3,manmade,one_modification,W4LL,92,92,1079,1079,black,no,3,Mozilla,Netscape,"5.0 (Windows NT 10.0; Win64; x64) AppleWebKit/537.36 (KHTML, like Gecko) Chrome/107.0.0.0 Safari/537.36",psycho,natural,psycho,psycho,0,uniform,1,1,M,0,0,0,0,23,0,0,23,23,0,0,0,23,23,23,23,0,0,23,23,0,23,28-10-22,28-10-22,20:45:32,Mon Nov 28 2022 20:45:32 GMT+0100 (heure normale d’Europe centrale),The main experiment item,yes,0,0,/Users/ethan/Documents/GitHub/OpenSesame/Class2,0,0,0,no,mono,no,18,no,white,no,no,768,936,3.6.1,psycho,psycho,osweb,1.4.11,1,*****,265,IwAR1vSM_qFNoc-geQ9tYRP4H8NV0WkiiwctAp6tkP7RmhPjHe8hMEaWgyWsY,,0,m,space,space,n,m,1567,20148,5289,7445,1567,2,psycho,728,1366,24,768,24,0,0,1366,1669664760939,1024,2,48000,-16,experiment,0,even,Win32,WALL,95,95,95,95,90503,93,91177,83245,95,20266,35214,92004,93576,91851,91955,95,91905,92003,ExPsyLing2022_Class2,22,25901,24,yes,1024,4
block3,natural,two_modifications,S7OR/\/\,92,92,1069,1069,black,no,3,Mozilla,Netscape,"5.0 (Windows NT 10.0; Win64; x64) AppleWebKit/537.36 (KHTML, like Gecko) Chrome/107.0.0.0 Safari/537.36",psycho,natural,psycho,psycho,0,uniform,1,1,N,0,0,0,0,24,0,0,24,24,0,0,0,24,24,24,24,0,0,24,24,0,24,28-10-22,28-10-22,20:45:32,Mon Nov 28 2022 20:45:32 GMT+0100 (heure normale d’Europe centrale),The main experiment item,yes,0,0,/Users/ethan/Documents/GitHub/OpenSesame/Class2,0,0,0,no,mono,no,18,no,white,no,no,768,936,3.6.1,psycho,psycho,osweb,1.4.11,1,*****,265,IwAR1vSM_qFNoc-geQ9tYRP4H8NV0WkiiwctAp6tkP7RmhPjHe8hMEaWgyWsY,,0,n,space,space,n,n,834,20148,5289,7445,834,2,psycho,728,1366,24,768,24,0,0,1366,1669664760939,1024,2,48000,-16,experiment,0,even,Win32,STORM,95,95,95,95,93579,93,94238,83245,95,20266,35214,95056,95904,94907,95007,95,94953,95056,ExPsyLing2022_Class2,23,26735,25,yes,1024,4
block3,manmade,one_modification,1OCK,92,92,1071,1071,black,no,3,Mozilla,Netscape,"5.0 (Windows NT 10.0; Win64; x64) AppleWebKit/537.36 (KHTML, like Gecko) Chrome/107.0.0.0 Safari/537.36",psycho,natural,psycho,psycho,0,uniform,1,1,M,0,0,0,0,25,0,0,25,25,0,0,0,25,25,25,25,0,0,25,25,0,25,28-10-22,28-10-22,20:45:32,Mon Nov 28 2022 20:45:32 GMT+0100 (heure normale d’Europe centrale),The main experiment item,yes,0,0,/Users/ethan/Documents/GitHub/OpenSesame/Class2,0,0,0,no,mono,no,18,no,white,no,no,768,936,3.6.1,psycho,psycho,osweb,1.4.11,1,*****,265,IwAR1vSM_qFNoc-geQ9tYRP4H8NV0WkiiwctAp6tkP7RmhPjHe8hMEaWgyWsY,,0,m,space,space,n,m,1101,20148,5289,7445,1101,2,psycho,728,1366,24,768,24,0,0,1366,1669664760939,1024,2,48000,-16,experiment,0,even,Win32,LOCK,95,95,95,95,95907,93,96598,83245,95,20266,35214,97408,98529,97255,97358,95,97307,97408,ExPsyLing2022_Class2,24,27836,26,yes,1024,4
block3,manmade,one_modification,LI$T,93,93,1060,1060,black,no,3,Mozilla,Netscape,"5.0 (Windows NT 10.0; Win64; x64) AppleWebKit/537.36 (KHTML, like Gecko) Chrome/107.0.0.0 Safari/537.36",psycho,natural,psycho,psycho,0,uniform,1,1,M,0,0,0,0,26,0,0,26,26,0,0,0,26,26,26,26,0,0,26,26,0,26,28-10-22,28-10-22,20:45:32,Mon Nov 28 2022 20:45:32 GMT+0100 (heure normale d’Europe centrale),The main experiment item,yes,0,0,/Users/ethan/Documents/GitHub/OpenSesame/Class2,0,0,0,no,mono,no,18,no,white,no,no,768,936,3.6.1,psycho,psycho,osweb,1.4.11,1,*****,265,IwAR1vSM_qFNoc-geQ9tYRP4H8NV0WkiiwctAp6tkP7RmhPjHe8hMEaWgyWsY,,0,m,space,space,n,m,795,20148,5289,7445,795,2,psycho,728,1366,24,768,24,0,0,1366,1669664760939,1024,2,48000,-16,experiment,0,even,Win32,LIST,95,95,95,95,98532,93,99190,83245,95,20266,35214,100009,100806,99860,99960,95,99907,100008,ExPsyLing2022_Class2,25,28631,27,yes,1024,4
block3,natural,exact,PEAR,93,93,1049,1049,black,no,3,Mozilla,Netscape,"5.0 (Windows NT 10.0; Win64; x64) AppleWebKit/537.36 (KHTML, like Gecko) Chrome/107.0.0.0 Safari/537.36",psycho,natural,psycho,psycho,0,uniform,1,1,N,0,0,0,0,27,0,0,27,27,0,0,0,27,27,27,27,0,0,27,27,0,27,28-10-22,28-10-22,20:45:32,Mon Nov 28 2022 20:45:32 GMT+0100 (heure normale d’Europe centrale),The main experiment item,yes,0,0,/Users/ethan/Documents/GitHub/OpenSesame/Class2,0,0,0,no,mono,no,18,no,white,no,no,768,936,3.6.1,psycho,psycho,osweb,1.4.11,1,*****,265,IwAR1vSM_qFNoc-geQ9tYRP4H8NV0WkiiwctAp6tkP7RmhPjHe8hMEaWgyWsY,,0,n,space,space,n,n,754,20148,5289,7445,754,2,psycho,728,1366,24,768,24,0,0,1366,1669664760939,1024,2,48000,-16,experiment,0,even,Win32,PEAR,95,95,95,95,100808,93,101471,83245,95,20266,35214,102288,103058,102133,102238,95,102185,102287,ExPsyLing2022_Class2,26,29385,28,yes,1024,4
block3,natural,unrelated,FROG,93,93,1044,1044,black,no,3,Mozilla,Netscape,"5.0 (Windows NT 10.0; Win64; x64) AppleWebKit/537.36 (KHTML, like Gecko) Chrome/107.0.0.0 Safari/537.36",psycho,natural,psycho,psycho,0,uniform,1,1,N,0,0,0,0,28,0,0,28,28,0,0,0,28,28,28,28,0,0,28,28,0,28,28-10-22,28-10-22,20:45:32,Mon Nov 28 2022 20:45:32 GMT+0100 (heure normale d’Europe centrale),The main experiment item,yes,0,0,/Users/ethan/Documents/GitHub/OpenSesame/Class2,0,0,0,no,mono,no,18,no,white,no,no,768,936,3.6.1,psycho,psycho,osweb,1.4.11,1,*****,265,IwAR1vSM_qFNoc-geQ9tYRP4H8NV0WkiiwctAp6tkP7RmhPjHe8hMEaWgyWsY,,0,n,space,space,n,n,900,20148,5289,7445,900,2,psycho,728,1366,24,768,24,0,0,1366,1669664760939,1024,2,48000,-16,experiment,0,even,Win32,SNOW,95,95,95,95,103062,93,103759,83245,95,20266,35214,104587,105510,104436,104541,95,104483,104587,ExPsyLing2022_Class2,27,30285,29,yes,1024,4
block3,natural,two_modifications,T(_)N4,93,93,1038,1038,black,no,3,Mozilla,Netscape,"5.0 (Windows NT 10.0; Win64; x64) AppleWebKit/537.36 (KHTML, like Gecko) Chrome/107.0.0.0 Safari/537.36",psycho,natural,psycho,psycho,0,uniform,1,1,N,0,0,0,0,29,0,0,29,29,0,0,0,29,29,29,29,0,0,29,29,0,29,28-10-22,28-10-22,20:45:32,Mon Nov 28 2022 20:45:32 GMT+0100 (heure normale d’Europe centrale),The main experiment item,yes,0,0,/Users/ethan/Documents/GitHub/OpenSesame/Class2,0,0,0,no,mono,no,18,no,white,no,no,768,936,3.6.1,psycho,psycho,osweb,1.4.11,1,*****,265,IwAR1vSM_qFNoc-geQ9tYRP4H8NV0WkiiwctAp6tkP7RmhPjHe8hMEaWgyWsY,,0,n,space,space,n,n,865,20148,5289,7445,865,2,psycho,728,1366,24,768,24,0,0,1366,1669664760939,1024,2,48000,-16,experiment,0,even,Win32,TUNA,95,95,95,95,105513,93,106191,83245,95,20266,35214,107013,107885,106864,106966,95,106909,107013,ExPsyLing2022_Class2,28,31150,30,yes,1024,4
block3,manmade,exact,KNIFE,94,94,1031,1031,black,no,3,Mozilla,Netscape,"5.0 (Windows NT 10.0; Win64; x64) AppleWebKit/537.36 (KHTML, like Gecko) Chrome/107.0.0.0 Safari/537.36",psycho,natural,psycho,psycho,0,uniform,1,1,M,0,0,0,0,30,0,0,30,30,0,0,0,30,30,30,30,0,0,30,30,0,30,28-10-22,28-10-22,20:45:32,Mon Nov 28 2022 20:45:32 GMT+0100 (heure normale d’Europe centrale),The main experiment item,yes,0,0,/Users/ethan/Documents/GitHub/OpenSesame/Class2,0,0,0,no,mono,no,18,no,white,no,no,768,936,3.6.1,psycho,psycho,osweb,1.4.11,1,*****,265,IwAR1vSM_qFNoc-geQ9tYRP4H8NV0WkiiwctAp6tkP7RmhPjHe8hMEaWgyWsY,,0,m,space,space,n,m,799,20148,5289,7445,799,2,psycho,728,1366,24,768,24,0,0,1366,1669664760939,1024,2,48000,-16,experiment,0,even,Win32,KNIFE,95,95,95,95,107888,93,108577,83245,95,20266,35214,109388,110188,109239,109343,95,109287,109388,ExPsyLing2022_Class2,29,31949,31,yes,1024,5
block3,manmade,exact,CAGE,94,94,1036,1036,black,no,3,Mozilla,Netscape,"5.0 (Windows NT 10.0; Win64; x64) AppleWebKit/537.36 (KHTML, like Gecko) Chrome/107.0.0.0 Safari/537.36",psycho,natural,psycho,psycho,0,uniform,1,1,M,0,0,0,0,31,0,0,31,31,0,0,0,31,31,31,31,0,0,31,31,0,31,28-10-22,28-10-22,20:45:32,Mon Nov 28 2022 20:45:32 GMT+0100 (heure normale d’Europe centrale),The main experiment item,yes,0,0,/Users/ethan/Documents/GitHub/OpenSesame/Class2,0,0,0,no,mono,no,18,no,white,no,no,768,936,3.6.1,psycho,psycho,osweb,1.4.11,1,*****,265,IwAR1vSM_qFNoc-geQ9tYRP4H8NV0WkiiwctAp6tkP7RmhPjHe8hMEaWgyWsY,,0,m,space,space,n,m,1204,20148,5289,7445,1204,2,psycho,728,1366,24,768,24,0,0,1366,1669664760939,1024,2,48000,-16,experiment,0,even,Win32,CAGE,95,95,95,95,110191,93,110845,83245,95,20266,35214,111667,112888,111518,111617,95,111567,111666,ExPsyLing2022_Class2,30,33153,32,yes,1024,4
block3,natural,one_modification,|*LUM,94,94,1032,1032,black,no,3,Mozilla,Netscape,"5.0 (Windows NT 10.0; Win64; x64) AppleWebKit/537.36 (KHTML, like Gecko) Chrome/107.0.0.0 Safari/537.36",psycho,natural,psycho,psycho,0,uniform,1,1,N,0,0,0,0,32,0,0,32,32,0,0,0,32,32,32,32,0,0,32,32,0,32,28-10-22,28-10-22,20:45:32,Mon Nov 28 2022 20:45:32 GMT+0100 (heure normale d’Europe centrale),The main experiment item,yes,0,0,/Users/ethan/Documents/GitHub/OpenSesame/Class2,0,0,0,no,mono,no,18,no,white,no,no,768,936,3.6.1,psycho,psycho,osweb,1.4.11,1,*****,265,IwAR1vSM_qFNoc-geQ9tYRP4H8NV0WkiiwctAp6tkP7RmhPjHe8hMEaWgyWsY,,0,n,space,space,n,n,905,20148,5289,7445,905,2,psycho,728,1366,24,768,24,0,0,1366,1669664760939,1024,2,48000,-16,experiment,0,even,Win32,PLUM,95,95,95,95,112891,93,113562,83245,95,20266,35214,114368,115291,114218,114318,95,114269,114368,ExPsyLing2022_Class2,31,34058,33,yes,1024,4
block3,natural,exact,APPLE,94,94,1023,1023,black,no,3,Mozilla,Netscape,"5.0 (Windows NT 10.0; Win64; x64) AppleWebKit/537.36 (KHTML, like Gecko) Chrome/107.0.0.0 Safari/537.36",psycho,natural,psycho,psycho,0,uniform,1,1,N,0,0,0,0,33,0,0,33,33,0,0,0,33,33,33,33,0,0,33,33,0,33,28-10-22,28-10-22,20:45:32,Mon Nov 28 2022 20:45:32 GMT+0100 (heure normale d’Europe centrale),The main experiment item,yes,0,0,/Users/ethan/Documents/GitHub/OpenSesame/Class2,0,0,0,no,mono,no,18,no,white,no,no,768,936,3.6.1,psycho,psycho,osweb,1.4.11,1,*****,265,IwAR1vSM_qFNoc-geQ9tYRP4H8NV0WkiiwctAp6tkP7RmhPjHe8hMEaWgyWsY,,0,n,space,space,n,n,732,20148,5289,7445,732,2,psycho,728,1366,24,768,24,0,0,1366,1669664760939,1024,2,48000,-16,experiment,0,even,Win32,APPLE,95,95,95,95,115294,93,115949,83245,95,20266,35214,116770,117516,116618,116722,95,116665,116770,ExPsyLing2022_Class2,32,34790,34,yes,1024,5
block3,natural,two_modifications,RA1^/,94,94,1039,1039,black,no,3,Mozilla,Netscape,"5.0 (Windows NT 10.0; Win64; x64) AppleWebKit/537.36 (KHTML, like Gecko) Chrome/107.0.0.0 Safari/537.36",psycho,natural,psycho,psycho,0,uniform,1,1,N,0,0,0,0,34,0,0,34,34,0,0,0,34,34,34,34,0,0,34,34,0,34,28-10-22,28-10-22,20:45:32,Mon Nov 28 2022 20:45:32 GMT+0100 (heure normale d’Europe centrale),The main experiment item,yes,0,0,/Users/ethan/Documents/GitHub/OpenSesame/Class2,0,0,0,no,mono,no,18,no,white,no,no,768,936,3.6.1,psycho,psycho,osweb,1.4.11,1,*****,265,IwAR1vSM_qFNoc-geQ9tYRP4H8NV0WkiiwctAp6tkP7RmhPjHe8hMEaWgyWsY,,0,n,space,space,n,n,1591,20148,5289,7445,1591,2,psycho,728,1366,24,768,24,0,0,1366,1669664760939,1024,2,48000,-16,experiment,0,even,Win32,RAIN,95,95,95,95,117519,93,118190,83245,95,20266,35214,118996,120594,118848,118947,95,118896,118996,ExPsyLing2022_Class2,33,36381,35,yes,1024,4
block3,natural,one_modification,B1RD,94,94,1032,1032,black,no,3,Mozilla,Netscape,"5.0 (Windows NT 10.0; Win64; x64) AppleWebKit/537.36 (KHTML, like Gecko) Chrome/107.0.0.0 Safari/537.36",psycho,natural,psycho,psycho,0,uniform,1,1,N,0,0,0,0,35,0,0,35,35,0,0,0,35,35,35,35,0,0,35,35,0,35,28-10-22,28-10-22,20:45:32,Mon Nov 28 2022 20:45:32 GMT+0100 (heure normale d’Europe centrale),The main experiment item,yes,0,0,/Users/ethan/Documents/GitHub/OpenSesame/Class2,0,0,0,no,mono,no,18,no,white,no,no,768,936,3.6.1,psycho,psycho,osweb,1.4.11,1,*****,265,IwAR1vSM_qFNoc-geQ9tYRP4H8NV0WkiiwctAp6tkP7RmhPjHe8hMEaWgyWsY,,0,n,space,space,n,n,755,20148,5289,7445,755,2,psycho,728,1366,24,768,24,0,0,1366,1669664760939,1024,2,48000,-16,experiment,0,even,Win32,BIRD,95,95,95,95,120596,93,121296,83245,95,20266,35214,122123,122897,121973,122075,95,122022,122123,ExPsyLing2022_Class2,34,37136,36,yes,1024,4
block3,natural,one_modification,^/UTS,95,95,1030,1030,black,no,3,Mozilla,Netscape,"5.0 (Windows NT 10.0; Win64; x64) AppleWebKit/537.36 (KHTML, like Gecko) Chrome/107.0.0.0 Safari/537.36",psycho,natural,psycho,psycho,0,uniform,1,1,N,0,0,0,0,36,0,0,36,36,0,0,0,36,36,36,36,0,0,36,36,0,36,28-10-22,28-10-22,20:45:32,Mon Nov 28 2022 20:45:32 GMT+0100 (heure normale d’Europe centrale),The main experiment item,yes,0,0,/Users/ethan/Documents/GitHub/OpenSesame/Class2,0,0,0,no,mono,no,18,no,white,no,no,768,936,3.6.1,psycho,psycho,osweb,1.4.11,1,*****,265,IwAR1vSM_qFNoc-geQ9tYRP4H8NV0WkiiwctAp6tkP7RmhPjHe8hMEaWgyWsY,,0,n,space,space,n,n,963,20148,5289,7445,963,2,psycho,728,1366,24,768,24,0,0,1366,1669664760939,1024,2,48000,-16,experiment,0,even,Win32,NUTS,95,95,95,95,122899,93,123572,83245,95,20266,35214,124379,125349,124226,124322,95,124273,124378,ExPsyLing2022_Class2,35,38099,37,yes,1024,4
block3,natural,exact,EGGS,95,95,1022,1022,black,no,3,Mozilla,Netscape,"5.0 (Windows NT 10.0; Win64; x64) AppleWebKit/537.36 (KHTML, like Gecko) Chrome/107.0.0.0 Safari/537.36",psycho,natural,psycho,psycho,0,uniform,1,1,N,0,0,0,0,37,0,0,37,37,0,0,0,37,37,37,37,0,0,37,37,0,37,28-10-22,28-10-22,20:45:32,Mon Nov 28 2022 20:45:32 GMT+0100 (heure normale d’Europe centrale),The main experiment item,yes,0,0,/Users/ethan/Documents/GitHub/OpenSesame/Class2,0,0,0,no,mono,no,18,no,white,no,no,768,936,3.6.1,psycho,psycho,osweb,1.4.11,1,*****,265,IwAR1vSM_qFNoc-geQ9tYRP4H8NV0WkiiwctAp6tkP7RmhPjHe8hMEaWgyWsY,,0,n,space,space,n,n,730,20148,5289,7445,730,2,psycho,728,1366,24,768,24,0,0,1366,1669664760939,1024,2,48000,-16,experiment,0,even,Win32,EGGS,95,95,95,95,125351,93,126030,83245,95,20266,35214,126854,127598,126703,126800,95,126749,126854,ExPsyLing2022_Class2,36,38829,38,yes,1024,4
block3,manmade,unrelated,TENT,95,95,1012,1012,black,no,3,Mozilla,Netscape,"5.0 (Windows NT 10.0; Win64; x64) AppleWebKit/537.36 (KHTML, like Gecko) Chrome/107.0.0.0 Safari/537.36",psycho,natural,psycho,psycho,0,uniform,1,1,M,0,0,0,0,38,0,0,38,38,0,0,0,38,38,38,38,0,0,38,38,0,38,28-10-22,28-10-22,20:45:32,Mon Nov 28 2022 20:45:32 GMT+0100 (heure normale d’Europe centrale),The main experiment item,yes,0,0,/Users/ethan/Documents/GitHub/OpenSesame/Class2,0,0,0,no,mono,no,18,no,white,no,no,768,936,3.6.1,psycho,psycho,osweb,1.4.11,1,*****,265,IwAR1vSM_qFNoc-geQ9tYRP4H8NV0WkiiwctAp6tkP7RmhPjHe8hMEaWgyWsY,,0,m,space,space,n,m,634,20148,5289,7445,634,2,psycho,728,1366,24,768,24,0,0,1366,1669664760939,1024,2,48000,-16,experiment,0,even,Win32,SHOE,95,95,95,95,127600,93,128272,83245,95,20266,35214,129080,129725,128929,129025,95,128975,129080,ExPsyLing2022_Class2,37,39463,39,yes,1024,4
block3,manmade,two_modifications,B411,95,95,1023,1023,black,no,3,Mozilla,Netscape,"5.0 (Windows NT 10.0; Win64; x64) AppleWebKit/537.36 (KHTML, like Gecko) Chrome/107.0.0.0 Safari/537.36",psycho,natural,psycho,psycho,0,uniform,1,1,M,0,0,0,0,39,0,0,39,39,0,0,0,39,39,39,39,0,0,39,39,0,39,28-10-22,28-10-22,20:45:32,Mon Nov 28 2022 20:45:32 GMT+0100 (heure normale d’Europe centrale),The main experiment item,yes,0,0,/Users/ethan/Documents/GitHub/OpenSesame/Class2,0,0,0,no,mono,no,18,no,white,no,no,768,936,3.6.1,psycho,psycho,osweb,1.4.11,1,*****,265,IwAR1vSM_qFNoc-geQ9tYRP4H8NV0WkiiwctAp6tkP7RmhPjHe8hMEaWgyWsY,,0,m,space,space,n,m,1455,20148,5289,7445,1455,2,psycho,728,1366,24,768,24,0,0,1366,1669664760939,1024,2,48000,-16,experiment,0,even,Win32,BALL,95,95,95,95,129728,93,130382,83245,95,20266,35214,131200,132676,131055,131154,95,131104,131200,ExPsyLing2022_Class2,38,40918,40,yes,1024,4
block3,natural,two_modifications,P0–òY,95,95,1026,1026,black,no,3,Mozilla,Netscape,"5.0 (Windows NT 10.0; Win64; x64) AppleWebKit/537.36 (KHTML, like Gecko) Chrome/107.0.0.0 Safari/537.36",psycho,natural,psycho,psycho,0,uniform,1,1,N,0,0,0,0,40,0,0,40,40,0,0,0,40,40,40,40,0,0,40,40,0,40,28-10-22,28-10-22,20:45:32,Mon Nov 28 2022 20:45:32 GMT+0100 (heure normale d’Europe centrale),The main experiment item,yes,0,0,/Users/ethan/Documents/GitHub/OpenSesame/Class2,0,0,0,no,mono,no,18,no,white,no,no,768,936,3.6.1,psycho,psycho,osweb,1.4.11,1,*****,265,IwAR1vSM_qFNoc-geQ9tYRP4H8NV0WkiiwctAp6tkP7RmhPjHe8hMEaWgyWsY,,0,n,space,space,n,n,1137,20148,5289,7445,1137,2,psycho,728,1366,24,768,24,0,0,1366,1669664760939,1024,2,48000,-16,experiment,0,even,Win32,PONY,95,95,95,95,132678,93,133321,83245,95,20266,35214,134127,135279,133981,134084,95,134027,134127,ExPsyLing2022_Class2,39,42055,41,yes,1024,4
block3,natural,unrelated,BREAD,95,95,1023,1023,black,no,3,Mozilla,Netscape,"5.0 (Windows NT 10.0; Win64; x64) AppleWebKit/537.36 (KHTML, like Gecko) Chrome/107.0.0.0 Safari/537.36",psycho,natural,psycho,psycho,0,uniform,1,1,N,0,0,0,0,41,0,0,41,41,0,0,0,41,41,41,41,0,0,41,41,0,41,28-10-22,28-10-22,20:45:32,Mon Nov 28 2022 20:45:32 GMT+0100 (heure normale d’Europe centrale),The main experiment item,yes,0,0,/Users/ethan/Documents/GitHub/OpenSesame/Class2,0,0,0,no,mono,no,18,no,white,no,no,768,936,3.6.1,psycho,psycho,osweb,1.4.11,1,*****,265,IwAR1vSM_qFNoc-geQ9tYRP4H8NV0WkiiwctAp6tkP7RmhPjHe8hMEaWgyWsY,,0,n,space,space,n,n,895,20148,5289,7445,895,2,psycho,728,1366,24,768,24,0,0,1366,1669664760939,1024,2,48000,-16,experiment,0,even,Win32,DOGS,95,95,95,95,135281,93,135952,83245,95,20266,35214,136791,137704,136635,136736,95,136682,136791,ExPsyLing2022_Class2,40,42950,42,yes,1024,4
block3,manmade,exact,LAMP,95,95,1029,1029,black,no,3,Mozilla,Netscape,"5.0 (Windows NT 10.0; Win64; x64) AppleWebKit/537.36 (KHTML, like Gecko) Chrome/107.0.0.0 Safari/537.36",psycho,natural,psycho,psycho,0,uniform,1,1,M,0,0,0,0,42,0,0,42,42,0,0,0,42,42,42,42,0,0,42,42,0,42,28-10-22,28-10-22,20:45:32,Mon Nov 28 2022 20:45:32 GMT+0100 (heure normale d’Europe centrale),The main experiment item,yes,0,0,/Users/ethan/Documents/GitHub/OpenSesame/Class2,0,0,0,no,mono,no,18,no,white,no,no,768,936,3.6.1,psycho,psycho,osweb,1.4.11,1,*****,265,IwAR1vSM_qFNoc-geQ9tYRP4H8NV0WkiiwctAp6tkP7RmhPjHe8hMEaWgyWsY,,0,m,space,space,n,m,1282,20148,5289,7445,1282,2,psycho,728,1366,24,768,24,0,0,1366,1669664760939,1024,2,48000,-16,experiment,0,even,Win32,LAMP,95,95,95,95,137706,93,138362,83245,95,20266,35214,139183,140484,139038,139137,95,139084,139183,ExPsyLing2022_Class2,41,44232,43,yes,1024,4
block3,natural,unrelated,DEER,95,95,1027,1027,black,no,3,Mozilla,Netscape,"5.0 (Windows NT 10.0; Win64; x64) AppleWebKit/537.36 (KHTML, like Gecko) Chrome/107.0.0.0 Safari/537.36",psycho,natural,psycho,psycho,0,uniform,1,1,N,0,0,0,0,43,0,0,43,43,0,0,0,43,43,43,43,0,0,43,43,0,43,28-10-22,28-10-22,20:45:32,Mon Nov 28 2022 20:45:32 GMT+0100 (heure normale d’Europe centrale),The main experiment item,yes,0,0,/Users/ethan/Documents/GitHub/OpenSesame/Class2,0,0,0,no,mono,no,18,no,white,no,no,768,936,3.6.1,psycho,psycho,osweb,1.4.11,1,*****,265,IwAR1vSM_qFNoc-geQ9tYRP4H8NV0WkiiwctAp6tkP7RmhPjHe8hMEaWgyWsY,,0,n,space,space,n,n,966,20148,5289,7445,966,2,psycho,728,1366,24,768,24,0,0,1366,1669664760939,1024,2,48000,-16,experiment,0,even,Win32,CROW,95,95,95,95,140486,93,141165,83245,95,20266,35214,141985,142960,141840,141938,95,141886,141985,ExPsyLing2022_Class2,42,45198,44,yes,1024,4
block3,manmade,two_modifications,/\\/\\A1L,96,96,1024,1024,black,no,3,Mozilla,Netscape,"5.0 (Windows NT 10.0; Win64; x64) AppleWebKit/537.36 (KHTML, like Gecko) Chrome/107.0.0.0 Safari/537.36",psycho,natural,psycho,psycho,0,uniform,1,1,M,0,0,0,0,44,0,0,44,44,0,0,0,44,44,44,44,0,0,44,44,0,44,28-10-22,28-10-22,20:45:32,Mon Nov 28 2022 20:45:32 GMT+0100 (heure normale d’Europe centrale),The main experiment item,yes,0,0,/Users/ethan/Documents/GitHub/OpenSesame/Class2,0,0,0,no,mono,no,18,no,white,no,no,768,936,3.6.1,psycho,psycho,osweb,1.4.11,1,*****,265,IwAR1vSM_qFNoc-geQ9tYRP4H8NV0WkiiwctAp6tkP7RmhPjHe8hMEaWgyWsY,,0,m,space,space,n,m,873,20148,5289,7445,873,2,psycho,728,1366,24,768,24,0,0,1366,1669664760939,1024,2,48000,-16,experiment,0,even,Win32,MAIL,95,95,95,95,142963,93,143625,83245,95,20266,35214,144440,145336,144291,144386,95,144336,144440,ExPsyLing2022_Class2,43,46071,45,yes,1024,4
block3,manmade,one_modification,CAK3,96,96,1023,1023,black,no,3,Mozilla,Netscape,"5.0 (Windows NT 10.0; Win64; x64) AppleWebKit/537.36 (KHTML, like Gecko) Chrome/107.0.0.0 Safari/537.36",psycho,natural,psycho,psycho,0,uniform,1,1,M,0,0,0,0,45,0,0,45,45,0,0,0,45,45,45,45,0,0,45,45,0,45,28-10-22,28-10-22,20:45:32,Mon Nov 28 2022 20:45:32 GMT+0100 (heure normale d’Europe centrale),The main experiment item,yes,0,0,/Users/ethan/Documents/GitHub/OpenSesame/Class2,0,0,0,no,mono,no,18,no,white,no,no,768,936,3.6.1,psycho,psycho,osweb,1.4.11,1,*****,265,IwAR1vSM_qFNoc-geQ9tYRP4H8NV0WkiiwctAp6tkP7RmhPjHe8hMEaWgyWsY,,0,m,space,space,n,m,977,20148,5289,7445,977,2,psycho,728,1366,24,768,24,0,0,1366,1669664760939,1024,2,48000,-16,experiment,0,even,Win32,CAKE,95,95,95,95,145339,93,146005,83245,95,20266,35214,146814,147811,146663,146767,95,146709,146814,ExPsyLing2022_Class2,44,47048,46,yes,1024,4
block3,manmade,two_modifications,V4S3,96,96,1023,1023,black,no,3,Mozilla,Netscape,"5.0 (Windows NT 10.0; Win64; x64) AppleWebKit/537.36 (KHTML, like Gecko) Chrome/107.0.0.0 Safari/537.36",psycho,natural,psycho,psycho,0,uniform,1,1,M,0,0,0,0,46,0,0,46,46,0,0,0,46,46,46,46,0,0,46,46,0,46,28-10-22,28-10-22,20:45:32,Mon Nov 28 2022 20:45:32 GMT+0100 (heure normale d’Europe centrale),The main experiment item,yes,0,0,/Users/ethan/Documents/GitHub/OpenSesame/Class2,0,0,0,no,mono,no,18,no,white,no,no,768,936,3.6.1,psycho,psycho,osweb,1.4.11,1,*****,265,IwAR1vSM_qFNoc-geQ9tYRP4H8NV0WkiiwctAp6tkP7RmhPjHe8hMEaWgyWsY,,0,m,space,space,n,m,1044,20148,5289,7445,1044,2,psycho,728,1366,24,768,24,0,0,1366,1669664760939,1024,2,48000,-16,experiment,0,even,Win32,VASE,95,95,95,95,147814,93,148483,83245,95,20266,35214,149294,150340,149143,149238,95,149189,149294,ExPsyLing2022_Class2,45,48092,47,yes,1024,4
block3,natural,two_modifications,LE4|=,96,96,1018,1018,black,no,3,Mozilla,Netscape,"5.0 (Windows NT 10.0; Win64; x64) AppleWebKit/537.36 (KHTML, like Gecko) Chrome/107.0.0.0 Safari/537.36",psycho,natural,psycho,psycho,0,uniform,1,1,N,0,0,0,0,47,0,0,47,47,0,0,0,47,47,47,47,0,0,47,47,0,47,28-10-22,28-10-22,20:45:32,Mon Nov 28 2022 20:45:32 GMT+0100 (heure normale d’Europe centrale),The main experiment item,yes,0,0,/Users/ethan/Documents/GitHub/OpenSesame/Class2,0,0,0,no,mono,no,18,no,white,no,no,768,936,3.6.1,psycho,psycho,osweb,1.4.11,1,*****,265,IwAR1vSM_qFNoc-geQ9tYRP4H8NV0WkiiwctAp6tkP7RmhPjHe8hMEaWgyWsY,,0,n,space,space,n,n,788,20148,5289,7445,788,2,psycho,728,1366,24,768,24,0,0,1366,1669664760939,1024,2,48000,-16,experiment,0,even,Win32,LEAF,95,95,95,95,150342,93,151007,83245,95,20266,35214,151813,152614,151669,151767,95,151717,151813,ExPsyLing2022_Class2,46,48880,48,yes,1024,4
block3,manmade,exact,PAPER,96,96,1020,1020,black,no,3,Mozilla,Netscape,"5.0 (Windows NT 10.0; Win64; x64) AppleWebKit/537.36 (KHTML, like Gecko) Chrome/107.0.0.0 Safari/537.36",psycho,natural,psycho,psycho,0,uniform,1,1,M,0,0,0,0,48,0,0,48,48,0,0,0,48,48,48,48,0,0,48,48,0,48,28-10-22,28-10-22,20:45:32,Mon Nov 28 2022 20:45:32 GMT+0100 (heure normale d’Europe centrale),The main experiment item,yes,0,0,/Users/ethan/Documents/GitHub/OpenSesame/Class2,0,0,0,no,mono,no,18,no,white,no,no,768,936,3.6.1,psycho,psycho,osweb,1.4.11,1,*****,265,IwAR1vSM_qFNoc-geQ9tYRP4H8NV0WkiiwctAp6tkP7RmhPjHe8hMEaWgyWsY,,0,m,space,space,n,m,1088,20148,5289,7445,1088,2,psycho,728,1366,24,768,24,0,0,1366,1669664760939,1024,2,48000,-16,experiment,0,even,Win32,PAPER,95,95,95,95,152617,93,153282,83245,95,20266,35214,154090,155191,153945,154044,95,153994,154090,ExPsyLing2022_Class2,47,49968,49,yes,1024,5
block3,manmade,unrelated,TOMB,96,96,1021,1021,black,no,3,Mozilla,Netscape,"5.0 (Windows NT 10.0; Win64; x64) AppleWebKit/537.36 (KHTML, like Gecko) Chrome/107.0.0.0 Safari/537.36",psycho,natural,psycho,psycho,0,uniform,1,1,M,0,0,0,0,49,0,0,49,49,0,0,0,49,49,49,49,0,0,49,49,0,49,28-10-22,28-10-22,20:45:32,Mon Nov 28 2022 20:45:32 GMT+0100 (heure normale d’Europe centrale),The main experiment item,yes,0,0,/Users/ethan/Documents/GitHub/OpenSesame/Class2,0,0,0,no,mono,no,18,no,white,no,no,768,936,3.6.1,psycho,psycho,osweb,1.4.11,1,*****,265,IwAR1vSM_qFNoc-geQ9tYRP4H8NV0WkiiwctAp6tkP7RmhPjHe8hMEaWgyWsY,,0,m,space,space,n,m,1101,20148,5289,7445,1101,2,psycho,728,1366,24,768,24,0,0,1366,1669664760939,1024,2,48000,-16,experiment,0,even,Win32,OVEN,95,95,95,95,155194,93,155835,83245,95,20266,35214,156647,157767,156496,156595,95,156546,156647,ExPsyLing2022_Class2,48,51069,50,yes,1024,4
block3,manmade,two_modifications,|*1ZZA,94,94,1023,1023,black,no,3,Mozilla,Netscape,"5.0 (Windows NT 10.0; Win64; x64) AppleWebKit/537.36 (KHTML, like Gecko) Chrome/107.0.0.0 Safari/537.36",psycho,natural,psycho,psycho,0,uniform,0,0,M,0,0,0,0,50,0,0,50,50,0,0,0,50,50,50,50,0,0,50,50,0,50,28-10-22,28-10-22,20:45:32,Mon Nov 28 2022 20:45:32 GMT+0100 (heure normale d’Europe centrale),The main experiment item,yes,0,0,/Users/ethan/Documents/GitHub/OpenSesame/Class2,0,0,0,no,mono,no,18,no,white,no,no,768,936,3.6.1,psycho,psycho,osweb,1.4.11,1,*****,265,IwAR1vSM_qFNoc-geQ9tYRP4H8NV0WkiiwctAp6tkP7RmhPjHe8hMEaWgyWsY,,0,n,space,space,n,n,1080,20148,5289,7445,1080,2,psycho,728,1366,24,768,24,0,0,1366,1669664760939,1024,2,48000,-16,experiment,0,even,Win32,PIZZA,95,95,95,95,157769,93,158432,83245,95,20266,35214,159246,160343,159099,159195,95,159146,159246,ExPsyLing2022_Class2,48,52149,51,yes,1024,5
block3,natural,unrelated,RIGHT,94,94,1019,1019,black,no,3,Mozilla,Netscape,"5.0 (Windows NT 10.0; Win64; x64) AppleWebKit/537.36 (KHTML, like Gecko) Chrome/107.0.0.0 Safari/537.36",psycho,natural,psycho,psycho,0,uniform,1,1,N,0,0,0,0,51,0,0,51,51,0,0,0,51,51,51,51,0,0,51,51,0,51,28-10-22,28-10-22,20:45:32,Mon Nov 28 2022 20:45:32 GMT+0100 (heure normale d’Europe centrale),The main experiment item,yes,0,0,/Users/ethan/Documents/GitHub/OpenSesame/Class2,0,0,0,no,mono,no,18,no,white,no,no,768,936,3.6.1,psycho,psycho,osweb,1.4.11,1,*****,265,IwAR1vSM_qFNoc-geQ9tYRP4H8NV0WkiiwctAp6tkP7RmhPjHe8hMEaWgyWsY,,0,n,space,space,n,n,828,20148,5289,7445,828,2,psycho,728,1366,24,768,24,0,0,1366,1669664760939,1024,2,48000,-16,experiment,0,even,Win32,SHEEP,95,95,95,95,157769,93,161007,160345,95,20266,35214,161823,162673,161673,161776,95,161720,161823,ExPsyLing2022_Class2,49,52977,52,yes,1024,5
block3,natural,one_modification,TIG3R,94,94,1025,1025,black,no,3,Mozilla,Netscape,"5.0 (Windows NT 10.0; Win64; x64) AppleWebKit/537.36 (KHTML, like Gecko) Chrome/107.0.0.0 Safari/537.36",psycho,natural,psycho,psycho,0,uniform,1,1,N,0,0,0,0,52,0,0,52,52,0,0,0,52,52,52,52,0,0,52,52,0,52,28-10-22,28-10-22,20:45:32,Mon Nov 28 2022 20:45:32 GMT+0100 (heure normale d’Europe centrale),The main experiment item,yes,0,0,/Users/ethan/Documents/GitHub/OpenSesame/Class2,0,0,0,no,mono,no,18,no,white,no,no,768,936,3.6.1,psycho,psycho,osweb,1.4.11,1,*****,265,IwAR1vSM_qFNoc-geQ9tYRP4H8NV0WkiiwctAp6tkP7RmhPjHe8hMEaWgyWsY,,0,n,space,space,n,n,1335,20148,5289,7445,1335,2,psycho,728,1366,24,768,24,0,0,1366,1669664760939,1024,2,48000,-16,experiment,0,even,Win32,TIGER,95,95,95,95,162675,93,163337,160345,95,20266,35214,164152,165498,163999,164099,95,164051,164152,ExPsyLing2022_Class2,50,54312,53,yes,1024,5
block3,manmade,one_modification,P#ONE,94,94,1018,1018,black,no,3,Mozilla,Netscape,"5.0 (Windows NT 10.0; Win64; x64) AppleWebKit/537.36 (KHTML, like Gecko) Chrome/107.0.0.0 Safari/537.36",psycho,natural,psycho,psycho,0,uniform,1,1,M,0,0,0,0,53,0,0,53,53,0,0,0,53,53,53,53,0,0,53,53,0,53,28-10-22,28-10-22,20:45:32,Mon Nov 28 2022 20:45:32 GMT+0100 (heure normale d’Europe centrale),The main experiment item,yes,0,0,/Users/ethan/Documents/GitHub/OpenSesame/Class2,0,0,0,no,mono,no,18,no,white,no,no,768,936,3.6.1,psycho,psycho,osweb,1.4.11,1,*****,265,IwAR1vSM_qFNoc-geQ9tYRP4H8NV0WkiiwctAp6tkP7RmhPjHe8hMEaWgyWsY,,0,m,space,space,n,m,660,20148,5289,7445,660,2,psycho,728,1366,24,768,24,0,0,1366,1669664760939,1024,2,48000,-16,experiment,0,even,Win32,PHONE,95,95,95,95,165501,93,166174,160345,95,20266,35214,166976,167650,166848,166929,95,166896,166976,ExPsyLing2022_Class2,51,54972,54,yes,1024,5
block3,manmade,two_modifications,)E5K,95,95,1012,1012,black,no,3,Mozilla,Netscape,"5.0 (Windows NT 10.0; Win64; x64) AppleWebKit/537.36 (KHTML, like Gecko) Chrome/107.0.0.0 Safari/537.36",psycho,natural,psycho,psycho,0,uniform,1,1,M,0,0,0,0,54,0,0,54,54,0,0,0,54,54,54,54,0,0,54,54,0,54,28-10-22,28-10-22,20:45:32,Mon Nov 28 2022 20:45:32 GMT+0100 (heure normale d’Europe centrale),The main experiment item,yes,0,0,/Users/ethan/Documents/GitHub/OpenSesame/Class2,0,0,0,no,mono,no,18,no,white,no,no,768,936,3.6.1,psycho,psycho,osweb,1.4.11,1,*****,265,IwAR1vSM_qFNoc-geQ9tYRP4H8NV0WkiiwctAp6tkP7RmhPjHe8hMEaWgyWsY,,0,m,space,space,n,m,709,20148,5289,7445,709,2,psycho,728,1366,24,768,24,0,0,1366,1669664760939,1024,2,48000,-16,experiment,0,even,Win32,DESK,95,95,95,95,167652,93,168320,160345,95,20266,35214,169128,169851,168981,169082,95,169027,169128,ExPsyLing2022_Class2,52,55681,55,yes,1024,4
block3,manmade,two_modifications,P46E,95,95,1015,1015,black,no,3,Mozilla,Netscape,"5.0 (Windows NT 10.0; Win64; x64) AppleWebKit/537.36 (KHTML, like Gecko) Chrome/107.0.0.0 Safari/537.36",psycho,natural,psycho,psycho,0,uniform,1,1,M,0,0,0,0,55,0,0,55,55,0,0,0,55,55,55,55,0,0,55,55,0,55,28-10-22,28-10-22,20:45:32,Mon Nov 28 2022 20:45:32 GMT+0100 (heure normale d’Europe centrale),The main experiment item,yes,0,0,/Users/ethan/Documents/GitHub/OpenSesame/Class2,0,0,0,no,mono,no,18,no,white,no,no,768,936,3.6.1,psycho,psycho,osweb,1.4.11,1,*****,265,IwAR1vSM_qFNoc-geQ9tYRP4H8NV0WkiiwctAp6tkP7RmhPjHe8hMEaWgyWsY,,0,m,space,space,n,m,1174,20148,5289,7445,1174,2,psycho,728,1366,24,768,24,0,0,1366,1669664760939,1024,2,48000,-16,experiment,0,even,Win32,PAGE,95,95,95,95,169854,93,170536,160345,95,20266,35214,171355,172553,171208,171308,95,171255,171354,ExPsyLing2022_Class2,53,56855,56,yes,1024,4
practice,,practice,,0,0,2017,2017,black,no,1,Mozilla,Netscape,"5.0 (Macintosh; Intel Mac OS X 10_13_6) AppleWebKit/605.1.15 (KHTML, like Gecko) Version/13.1.2 Safari/605.1.15",psycho,natural,psycho,psycho,0,uniform,0,0,N,0,0,0,0,0,0,0,0,0,0,0,0,0,0,0,0,0,0,0,0,0,0,28-10-22,28-10-22,18:03:28,Mon Nov 28 2022 18:03:28 GMT+0100 (CET),The main experiment item,yes,0,0,/Users/ethan/Documents/GitHub/OpenSesame/Class2,0,0,0,no,mono,no,18,no,white,no,no,768,934,3.6.1,psycho,psycho,osweb,1.4.11,1,*****,265,,,0,None,space,space,,None,2017,18153,1528,,2017,2,psycho,800,1280,24,800,24,0,0,1280,1669653873318,1024,2,48000,-16,experiment,0,even,MacIntel,VINE,128,128,128,128,,117,19952,,128,18295,,20764,22782,20616,20716,128,20664,20764,ExPsyLing2022_Class2,0,2017,1,yes,1024,4
practice,,practice,,50,50,1606,1606,black,no,1,Mozilla,Netscape,"5.0 (Macintosh; Intel Mac OS X 10_13_6) AppleWebKit/605.1.15 (KHTML, like Gecko) Version/13.1.2 Safari/605.1.15",psycho,manmade,psycho,psycho,0,uniform,1,1,M,0,0,0,0,1,0,0,1,1,0,0,0,1,1,1,1,0,0,1,1,0,1,28-10-22,28-10-22,18:03:28,Mon Nov 28 2022 18:03:28 GMT+0100 (CET),The main experiment item,yes,0,0,/Users/ethan/Documents/GitHub/OpenSesame/Class2,0,0,0,no,mono,no,18,no,white,no,no,768,934,3.6.1,psycho,psycho,osweb,1.4.11,1,*****,265,,,0,m,space,space,,m,1194,18153,1528,,1194,2,psycho,800,1280,24,800,24,0,0,1280,1669653873318,1024,2,48000,-16,experiment,0,even,MacIntel,BOAT,128,128,128,128,,117,23420,22790,128,18295,,24238,25437,24089,24189,128,24137,24238,ExPsyLing2022_Class2,1,3211,2,yes,1024,4
practice,,practice,,33,33,1576,1576,black,no,1,Mozilla,Netscape,"5.0 (Macintosh; Intel Mac OS X 10_13_6) AppleWebKit/605.1.15 (KHTML, like Gecko) Version/13.1.2 Safari/605.1.15",psycho,manmade,psycho,psycho,0,uniform,0,0,M,0,0,0,0,2,0,0,2,2,0,0,0,2,2,2,2,0,0,2,2,0,2,28-10-22,28-10-22,18:03:28,Mon Nov 28 2022 18:03:28 GMT+0100 (CET),The main experiment item,yes,0,0,/Users/ethan/Documents/GitHub/OpenSesame/Class2,0,0,0,no,mono,no,18,no,white,no,no,768,934,3.6.1,psycho,psycho,osweb,1.4.11,1,*****,265,,,0,n,space,space,,n,1516,18153,1528,,1516,2,psycho,800,1280,24,800,24,0,0,1280,1669653873318,1024,2,48000,-16,experiment,0,even,MacIntel,STAIRS,128,128,128,128,25443,117,26053,22790,128,18295,,26843,28359,26711,26796,128,26758,26843,ExPsyLing2022_Class2,1,4727,3,yes,1024,6
