"Mod_level","acc","accuracy","average_response_time","avg_rt","background","canvas_backend","category","clock_backend","color_backend","compensation","coordinates","correct","correct_instructions1","correct_instructions2","correct_instructions3","correct_keyboard_response","correct_response","count_block_1","count_block_2","count_block_3","count_block_4","count_correct","count_experiment","count_fixation","count_incorrect","count_instructions1","count_instructions2","count_instructions3","count_instructions4","count_instructions_4","count_keyboard_response","count_logger","count_mask1","count_mask2","count_practice","count_prime","count_target","count_thanks","count_trial_sequence","datetime","description","disable_garbage_collection","empty_column","experiment_file","experiment_path","font_bold","font_family","font_italic","font_size","font_underline","foreground","form_clicks","fullscreen","height","keyboard_backend","live_row","live_row_practice","logfile","mouse_backend","opensesame_codename","opensesame_version","prime","repeat_cycle","response","response_instructions1","response_instructions2","response_instructions3","response_instructions4","response_instructions_4","response_keyboard_response","response_time","response_time_instructions1","response_time_instructions2","response_time_instructions3","response_time_instructions4","response_time_instructions_4","response_time_keyboard_response","round_decimals","sampler_backend","sound_buf_size","sound_channels","sound_freq","sound_sample_size","start","subject_nr","subject_parity","target","time_block_1","time_block_2","time_block_3","time_block_4","time_correct","time_experiment","time_fixation","time_incorrect","time_instructions1","time_instructions2","time_instructions3","time_instructions4","time_instructions_4","time_keyboard_response","time_logger","time_mask1","time_mask2","time_practice","time_prime","time_target","time_thanks","time_trial_sequence","title","total_correct","total_response_time","total_responses","uniform_coordinates","width","word_length"
"unrelated","0","0","2000.0400420103688","2000.0400420103688","black","psycho","manmade","psycho","psycho","0","uniform","0","undefined","undefined","undefined","0","m","NA","NA","NA","NA","0","0","0","0","0","0","0","NA","NA","0","0","0","0","0","0","0","0","0","Thu Nov 24 11:48:55 2022","The main experiment item","yes","NA","Class2_2022.osexp","/Users/ethan/Documents/GitHub/OpenSesame/Class2","no","mono","no","18","no","white","no","no","768","psycho","0","0","/Users/ethan/Documents/GitHub/OpenSesame/Class2/quickrun.csv","psycho","Lentiform Loewenfeld","3.3.12","HOME","0","None","space","space","space","NA","NA","None","2000.0400420103688","493.04258401389234","487.69829198135994","547.1452079946175","NA","NA","2000.0400420103688","2","psycho","1024","2","48000","-16","experiment","999","odd","COAT","NA","NA","NA","NA","NA","2556.1982080107555","4173.173957999097","NA","2570.190166006796","3085.220458015101","3584.2939580034","NA","NA","4928.68566600373","6928.88849999872","4828.644791006809","4894.8249999957625","4132.774208002957","4862.373500014655","4928.572125005303","NA","4171.033582999371","Class2","0","2000.0400420103688","1","yes","1024","4"
"exact","50","50","1068.761041504331","1068.761041504331","black","psycho","manmade","psycho","psycho","0","uniform","1","undefined","undefined","undefined","1","m","NA","NA","NA","NA","1","0","1","1","0","0","0","NA","NA","1","1","1","1","0","1","1","0","1","Thu Nov 24 11:48:55 2022","The main experiment item","yes","NA","Class2_2022.osexp","/Users/ethan/Documents/GitHub/OpenSesame/Class2","no","mono","no","18","no","white","no","no","768","psycho","1","1","/Users/ethan/Documents/GitHub/OpenSesame/Class2/quickrun.csv","psycho","Lentiform Loewenfeld","3.3.12","BALL","0","m","space","space","space","NA","NA","m","137.4820409982931","493.04258401389234","487.69829198135994","547.1452079946175","NA","NA","137.4820409982931","2","psycho","1024","2","48000","-16","experiment","999","odd","BALL","NA","NA","NA","NA","NA","2556.1982080107555","7501.281208009459","6934.421875019325","2570.190166006796","3085.220458015101","3584.2939580034","NA","NA","8254.957500001183","8393.834540998796","8155.010707996553","8220.931832998758","4132.774208002957","8188.770541019039","8254.833707993384","NA","7498.284375004005","Class2","1","2137.522083008662","2","yes","1024","4"
"one_modification","33.333333333333336","33.333333333333336","927.1274303415945","927.1274303415945","black","psycho","natural","psycho","psycho","0","uniform","0","undefined","undefined","undefined","0","n","NA","NA","NA","NA","2","0","2","2","0","0","0","NA","NA","2","2","2","2","0","2","2","0","2","Thu Nov 24 11:48:55 2022","The main experiment item","yes","NA","Class2_2022.osexp","/Users/ethan/Documents/GitHub/OpenSesame/Class2","no","mono","no","18","no","white","no","no","768","psycho","2","2","/Users/ethan/Documents/GitHub/OpenSesame/Class2/quickrun.csv","psycho","Lentiform Loewenfeld","3.3.12","TI2EE","0","m","space","space","space","NA","NA","m","643.8602080161218","493.04258401389234","487.69829198135994","547.1452079946175","NA","NA","643.8602080161218","2","psycho","1024","2","48000","-16","experiment","999","odd","TREE","NA","NA","NA","NA","8397.327125014272","2556.1982080107555","8964.982875011628","6934.421875019325","2570.190166006796","3085.220458015101","3584.2939580034","NA","NA","9719.098000001395","10364.370791008696","9619.734666019212","9685.449500015238","4132.774208002957","9653.310624998994","9718.985625018831","NA","8961.90383299836","Class2","1","2781.3822910247836","3","yes","1024","4"
"one_modification","25","25","776.3610207548481","776.3610207548481","black","psycho","manmade","psycho","psycho","0","uniform","0","undefined","undefined","undefined","0","m","NA","NA","NA","NA","3","0","3","3","0","0","0","NA","NA","3","3","3","3","0","3","3","0","3","Thu Nov 24 11:48:55 2022","The main experiment item","yes","NA","Class2_2022.osexp","/Users/ethan/Documents/GitHub/OpenSesame/Class2","no","mono","no","18","no","white","no","no","768","psycho","3","3","/Users/ethan/Documents/GitHub/OpenSesame/Class2/quickrun.csv","psycho","Lentiform Loewenfeld","3.3.12","DI5H","0","n","space","space","space","NA","NA","n","324.06179199460894","493.04258401389234","487.69829198135994","547.1452079946175","NA","NA","324.06179199460894","2","psycho","1024","2","48000","-16","experiment","999","odd","DISH","NA","NA","NA","NA","8397.327125014272","2556.1982080107555","10935.627375001786","10368.095291021746","2570.190166006796","3085.220458015101","3584.2939580034","NA","NA","11689.833166019525","12015.214915998513","11590.374999999767","11656.189750006888","4132.774208002957","11623.90812500962","11689.703540992923","NA","10932.45449999813","Class2","1","3105.4440830193926","4","yes","1024","4"
"two_modifications","20","20","880.1741834031418","880.1741834031418","black","psycho","natural","psycho","psycho","0","uniform","0","undefined","undefined","undefined","0","n","NA","NA","NA","NA","4","0","4","4","0","0","0","NA","NA","4","4","4","4","0","4","4","0","4","Thu Nov 24 11:48:55 2022","The main experiment item","yes","NA","Class2_2022.osexp","/Users/ethan/Documents/GitHub/OpenSesame/Class2","no","mono","no","18","no","white","no","no","768","psycho","4","4","/Users/ethan/Documents/GitHub/OpenSesame/Class2/quickrun.csv","psycho","Lentiform Loewenfeld","3.3.12","[R0W","0","m","space","space","space","NA","NA","m","1295.4268339963164","493.04258401389234","487.69829198135994","547.1452079946175","NA","NA","1295.4268339963164","2","psycho","1024","2","48000","-16","experiment","999","odd","CROW","NA","NA","NA","NA","8397.327125014272","2556.1982080107555","12586.510916007683","12018.970958015416","2570.190166006796","3085.220458015101","3584.2939580034","NA","NA","13340.471666015219","14637.286415993003","13241.083666012855","13306.841957994038","4132.774208002957","13274.628125014715","13340.35875002155","NA","12583.47379101906","Class2","1","4400.870917015709","5","yes","1024","4"
"two_modifications","33.333333333333336","33.333333333333336","956.9855346732462","956.9855346732462","black","psycho","natural","psycho","psycho","0","uniform","1","undefined","undefined","undefined","1","n","NA","NA","NA","NA","5","0","5","5","0","0","0","NA","NA","5","5","5","5","0","5","5","0","5","Thu Nov 24 11:48:55 2022","The main experiment item","yes","NA","Class2_2022.osexp","/Users/ethan/Documents/GitHub/OpenSesame/Class2","no","mono","no","18","no","white","no","no","768","psycho","5","5","/Users/ethan/Documents/GitHub/OpenSesame/Class2/quickrun.csv","psycho","Lentiform Loewenfeld","3.3.12","T(_)N4","0","n","space","space","space","NA","NA","n","1341.0422910237685","493.04258401389234","487.69829198135994","547.1452079946175","NA","NA","1341.0422910237685","2","psycho","1024","2","48000","-16","experiment","999","odd","TUNA","NA","NA","NA","NA","8397.327125014272","2556.1982080107555","15208.689166000113","14640.185791009571","2570.190166006796","3085.220458015101","3584.2939580034","NA","NA","15963.570499996422","17306.100457994035","15862.954665994039","15929.747957998188","4132.774208002957","15896.999707998475","15963.459082995541","NA","15206.64166600909","Class2","2","5741.9132080394775","6","yes","1024","4"
"unrelated","42.857142857142854","42.857142857142854","913.5088570058413","913.5088570058413","black","psycho","natural","psycho","psycho","0","uniform","1","undefined","undefined","undefined","1","n","NA","NA","NA","NA","6","0","6","6","0","0","0","NA","NA","6","6","6","6","0","6","6","0","6","Thu Nov 24 11:48:55 2022","The main experiment item","yes","NA","Class2_2022.osexp","/Users/ethan/Documents/GitHub/OpenSesame/Class2","no","mono","no","18","no","white","no","no","768","psycho","6","6","/Users/ethan/Documents/GitHub/OpenSesame/Class2/quickrun.csv","psycho","Lentiform Loewenfeld","3.3.12","WOOD","0","n","space","space","space","NA","NA","n","652.6487910014112","493.04258401389234","487.69829198135994","547.1452079946175","NA","NA","652.6487910014112","2","psycho","1024","2","48000","-16","experiment","999","odd","TUNA","NA","NA","NA","NA","17310.96591599635","2556.1982080107555","17877.460957999574","14640.185791009571","2570.190166006796","3085.220458015101","3584.2939580034","NA","NA","18631.47399999434","19285.54162499495","18532.09004100063","18597.92466601357","4132.774208002957","18565.91462501092","18631.356333004078","NA","17874.687958013965","Class2","3","6394.561999040889","7","yes","1024","4"
"one_modification","37.5","37.5","841.2898957576544","841.2898957576544","black","psycho","manmade","psycho","psycho","0","uniform","0","undefined","undefined","undefined","0","m","NA","NA","NA","NA","7","0","7","7","0","0","0","NA","NA","7","7","7","7","0","7","7","0","7","Thu Nov 24 11:48:55 2022","The main experiment item","yes","NA","Class2_2022.osexp","/Users/ethan/Documents/GitHub/OpenSesame/Class2","no","mono","no","18","no","white","no","no","768","psycho","7","7","/Users/ethan/Documents/GitHub/OpenSesame/Class2/quickrun.csv","psycho","Lentiform Loewenfeld","3.3.12","I3ALL","0","n","space","space","space","NA","NA","n","335.75716702034697","493.04258401389234","487.69829198135994","547.1452079946175","NA","NA","335.75716702034697","2","psycho","1024","2","48000","-16","experiment","999","odd","BALL","NA","NA","NA","NA","19288.760708004702","2556.1982080107555","19855.99775001174","14640.185791009571","2570.190166006796","3085.220458015101","3584.2939580034","NA","NA","20610.188291000668","20947.299166000448","20510.6331660063","20576.611333002802","4132.774208002957","20544.4329160091","20610.077250021277","NA","19852.925250015687","Class2","3","6730.319166061236","8","yes","1024","4"
"two_modifications","33.333333333333336","33.333333333333336","765.0082036723486","765.0082036723486","black","psycho","natural","psycho","psycho","0","uniform","0","undefined","undefined","undefined","0","n","NA","NA","NA","NA","8","0","8","8","0","0","0","NA","NA","8","8","8","8","0","8","8","0","8","Thu Nov 24 11:48:55 2022","The main experiment item","yes","NA","Class2_2022.osexp","/Users/ethan/Documents/GitHub/OpenSesame/Class2","no","mono","no","18","no","white","no","no","768","psycho","8","8","/Users/ethan/Documents/GitHub/OpenSesame/Class2/quickrun.csv","psycho","Lentiform Loewenfeld","3.3.12","LE4|=","0","m","space","space","space","NA","NA","m","154.75466698990203","493.04258401389234","487.69829198135994","547.1452079946175","NA","NA","154.75466698990203","2","psycho","1024","2","48000","-16","experiment","999","odd","LEAF","NA","NA","NA","NA","19288.760708004702","2556.1982080107555","21518.390625016764","20950.97837501089","2570.190166006796","3085.220458015101","3584.2939580034","NA","NA","22272.368708014255","22428.50287500187","22172.9094159964","22238.335625006584","4132.774208002957","22206.413250009064","22272.227915993426","NA","21515.448000020115","Class2","3","6885.073833051138","9","yes","1024","4"
"one_modification","30","30","723.0239291064208","723.0239291064208","black","psycho","natural","psycho","psycho","0","uniform","0","undefined","undefined","undefined","0","n","NA","NA","NA","NA","9","0","9","9","0","0","0","NA","NA","9","9","9","9","0","9","9","0","9","Thu Nov 24 11:48:55 2022","The main experiment item","yes","NA","Class2_2022.osexp","/Users/ethan/Documents/GitHub/OpenSesame/Class2","no","mono","no","18","no","white","no","no","768","psycho","9","9","/Users/ethan/Documents/GitHub/OpenSesame/Class2/quickrun.csv","psycho","Lentiform Loewenfeld","3.3.12","I3EAK","0","m","space","space","space","NA","NA","m","345.16545801307075","493.04258401389234","487.69829198135994","547.1452079946175","NA","NA","345.16545801307075","2","psycho","1024","2","48000","-16","experiment","999","odd","BEAK","NA","NA","NA","NA","19288.760708004702","2556.1982080107555","22999.23149999813","22432.19337501796","2570.190166006796","3085.220458015101","3584.2939580034","NA","NA","23753.286374994786","24099.748750013532","23653.851041017333","23719.70145800151","4132.774208002957","23687.59591600974","23753.16858300357","NA","22996.28983301227","Class2","3","7230.239291064208","10","yes","1024","4"
"exact","36.36363636363637","36.36363636363637","671.1398332766046","671.1398332766046","black","psycho","manmade","psycho","psycho","0","uniform","1","undefined","undefined","undefined","1","m","NA","NA","NA","NA","10","0","10","10","0","0","0","NA","NA","10","10","10","10","0","10","10","0","10","Thu Nov 24 11:48:55 2022","The main experiment item","yes","NA","Class2_2022.osexp","/Users/ethan/Documents/GitHub/OpenSesame/Class2","no","mono","no","18","no","white","no","no","768","psycho","10","10","/Users/ethan/Documents/GitHub/OpenSesame/Class2/quickrun.csv","psycho","Lentiform Loewenfeld","3.3.12","SINK","0","m","space","space","space","NA","NA","m","152.29887497844175","493.04258401389234","487.69829198135994","547.1452079946175","NA","NA","152.29887497844175","2","psycho","1024","2","48000","-16","experiment","999","odd","SINK","NA","NA","NA","NA","19288.760708004702","2556.1982080107555","24670.297541015316","24103.41462501674","2570.190166006796","3085.220458015101","3584.2939580034","NA","NA","25423.42162501882","25577.019125019433","25323.884333018214","25389.714250020916","4132.774208002957","25357.632916013245","25423.30816600588","NA","24667.36616601702","Class2","4","7382.53816604265","11","yes","1024","4"
"exact","33.333333333333336","33.333333333333336","636.2623784201181","636.2623784201181","black","psycho","natural","psycho","psycho","0","uniform","0","undefined","undefined","undefined","0","n","NA","NA","NA","NA","11","0","11","11","0","0","0","NA","NA","11","11","11","11","0","11","11","0","11","Thu Nov 24 11:48:55 2022","The main experiment item","yes","NA","Class2_2022.osexp","/Users/ethan/Documents/GitHub/OpenSesame/Class2","no","mono","no","18","no","white","no","no","768","psycho","11","11","/Users/ethan/Documents/GitHub/OpenSesame/Class2/quickrun.csv","psycho","Lentiform Loewenfeld","3.3.12","TREE","0","m","space","space","space","NA","NA","m","252.61037499876693","493.04258401389234","487.69829198135994","547.1452079946175","NA","NA","252.61037499876693","2","psycho","1024","2","48000","-16","experiment","999","odd","TREE","NA","NA","NA","NA","25580.602208006894","2556.1982080107555","26147.356375004165","24103.41462501674","2570.190166006796","3085.220458015101","3584.2939580034","NA","NA","26901.98033300112","27155.87666601641","26802.06591601018","26868.061707995366","4132.774208002957","26835.873875010293","26901.852375012822","NA","26144.3922080216","Class2","4","7635.148541041417","12","yes","1024","4"
"unrelated","38.46153846153846","38.46153846153846","598.38516984914","598.38516984914","black","psycho","natural","psycho","psycho","0","uniform","1","undefined","undefined","undefined","1","n","NA","NA","NA","NA","12","0","12","12","0","0","0","NA","NA","12","12","12","12","0","12","12","0","12","Thu Nov 24 11:48:55 2022","The main experiment item","yes","NA","Class2_2022.osexp","/Users/ethan/Documents/GitHub/OpenSesame/Class2","no","mono","no","18","no","white","no","no","768","psycho","12","12","/Users/ethan/Documents/GitHub/OpenSesame/Class2/quickrun.csv","psycho","Lentiform Loewenfeld","3.3.12","CAKE","0","n","space","space","space","NA","NA","n","143.8586669974029","493.04258401389234","487.69829198135994","547.1452079946175","NA","NA","143.8586669974029","2","psycho","1024","2","48000","-16","experiment","999","odd","LEAF","NA","NA","NA","NA","25580.602208006894","2556.1982080107555","27726.461583020864","27159.65962500195","2570.190166006796","3085.220458015101","3584.2939580034","NA","NA","28482.6942080108","28627.874625002733","28383.43741602148","28449.086791020818","4132.774208002957","28417.067708011018","28482.559666008456","NA","27723.388708021957","Class2","5","7779.00720803882","13","yes","1024","4"
"two_modifications","35.714285714285715","35.714285714285715","698.5031220039153","698.5031220039153","black","psycho","manmade","psycho","psycho","0","uniform","0","undefined","undefined","undefined","0","m","NA","NA","NA","NA","13","0","13","13","0","0","0","NA","NA","13","13","13","13","0","13","13","0","13","Thu Nov 24 11:48:55 2022","The main experiment item","yes","NA","Class2_2022.osexp","/Users/ethan/Documents/GitHub/OpenSesame/Class2","no","mono","no","18","no","white","no","no","768","psycho","13","13","/Users/ethan/Documents/GitHub/OpenSesame/Class2/quickrun.csv","psycho","Lentiform Loewenfeld","3.3.12","L4M|*","0","None","space","space","space","NA","NA","None","2000.0365000159945","493.04258401389234","487.69829198135994","547.1452079946175","NA","NA","2000.0365000159945","2","psycho","1024","2","48000","-16","experiment","999","odd","LAMP","NA","NA","NA","NA","28631.609916017624","2556.1982080107555","29198.822625010507","27159.65962500195","2570.190166006796","3085.220458015101","3584.2939580034","NA","NA","29952.959665999515","31953.197708004154","29853.432375006378","29919.34345799382","4132.774208002957","29887.178500008304","29952.84670800902","NA","29195.80812501954","Class2","5","9779.043708054814","14","yes","1024","4"
"two_modifications","33.333333333333336","33.333333333333336","671.8957833363675","671.8957833363675","black","psycho","manmade","psycho","psycho","0","uniform","0","undefined","undefined","undefined","0","m","NA","NA","NA","NA","14","0","14","14","0","0","0","NA","NA","14","14","14","14","0","14","14","0","14","Thu Nov 24 11:48:55 2022","The main experiment item","yes","NA","Class2_2022.osexp","/Users/ethan/Documents/GitHub/OpenSesame/Class2","no","mono","no","18","no","white","no","no","768","psycho","14","14","/Users/ethan/Documents/GitHub/OpenSesame/Class2/quickrun.csv","psycho","Lentiform Loewenfeld","3.3.12","B411","0","n","space","space","space","NA","NA","n","299.3930419906974","493.04258401389234","487.69829198135994","547.1452079946175","NA","NA","299.3930419906974","2","psycho","1024","2","48000","-16","experiment","999","odd","BALL","NA","NA","NA","NA","28631.609916017624","2556.1982080107555","32526.35741600534","31958.029041008558","2570.190166006796","3085.220458015101","3584.2939580034","NA","NA","33280.24545800872","33581.10858302098","33180.58025001665","33246.664000005694","4132.774208002957","33214.43191601429","33280.13162501156","NA","32522.21075000125","Class2","5","10078.436750045512","15","yes","1024","4"
"one_modification","31.25","31.25","654.8345703158702","654.8345703158702","black","psycho","manmade","psycho","psycho","0","uniform","0","undefined","undefined","undefined","0","m","NA","NA","NA","NA","15","0","15","15","0","0","0","NA","NA","15","15","15","15","0","15","15","0","15","Thu Nov 24 11:48:55 2022","The main experiment item","yes","NA","Class2_2022.osexp","/Users/ethan/Documents/GitHub/OpenSesame/Class2","no","mono","no","18","no","white","no","no","768","psycho","15","15","/Users/ethan/Documents/GitHub/OpenSesame/Class2/quickrun.csv","psycho","Lentiform Loewenfeld","3.3.12","\\/ASE","0","n","space","space","space","NA","NA","n","398.9163750084117","493.04258401389234","487.69829198135994","547.1452079946175","NA","NA","398.9163750084117","2","psycho","1024","2","48000","-16","experiment","999","odd","VASE","NA","NA","NA","NA","28631.609916017624","2556.1982080107555","34152.67516599852","33584.994416014524","2570.190166006796","3085.220458015101","3584.2939580034","NA","NA","34906.63974999916","35306.754958000965","34807.22704101936","34872.93320801109","4132.774208002957","34840.76262501185","34906.52358302032","NA","34149.67612500186","Class2","5","10477.353125053924","16","yes","1024","4"
"one_modification","35.294117647058826","35.294117647058826","634.3232647084412","634.3232647084412","black","psycho","natural","psycho","psycho","0","uniform","1","undefined","undefined","undefined","1","n","NA","NA","NA","NA","16","0","16","16","0","0","0","NA","NA","16","16","16","16","0","16","16","0","16","Thu Nov 24 11:48:55 2022","The main experiment item","yes","NA","Class2_2022.osexp","/Users/ethan/Documents/GitHub/OpenSesame/Class2","no","mono","no","18","no","white","no","no","768","psycho","16","16","/Users/ethan/Documents/GitHub/OpenSesame/Class2/quickrun.csv","psycho","Lentiform Loewenfeld","3.3.12","1EAF","0","n","space","space","space","NA","NA","n","306.14237498957664","493.04258401389234","487.69829198135994","547.1452079946175","NA","NA","306.14237498957664","2","psycho","1024","2","48000","-16","experiment","999","odd","LEAF","NA","NA","NA","NA","28631.609916017624","2556.1982080107555","35877.26787501015","35310.730249999324","2570.190166006796","3085.220458015101","3584.2939580034","NA","NA","36630.704291019356","36938.00658301916","36531.07733299839","36597.01333299745","4132.774208002957","36564.88116600667","36630.56637500995","NA","35874.22349999542","Class2","6","10783.4955000435","17","yes","1024","4"
"exact","38.888888888888886","38.888888888888886","607.5808541694036","607.5808541694036","black","psycho","natural","psycho","psycho","0","uniform","1","undefined","undefined","undefined","1","n","NA","NA","NA","NA","17","0","17","17","0","0","0","NA","NA","17","17","17","17","0","17","17","0","17","Thu Nov 24 11:48:55 2022","The main experiment item","yes","NA","Class2_2022.osexp","/Users/ethan/Documents/GitHub/OpenSesame/Class2","no","mono","no","18","no","white","no","no","768","psycho","17","17","/Users/ethan/Documents/GitHub/OpenSesame/Class2/quickrun.csv","psycho","Lentiform Loewenfeld","3.3.12","CROW","0","n","space","space","space","NA","NA","n","152.95987500576302","493.04258401389234","487.69829198135994","547.1452079946175","NA","NA","152.95987500576302","2","psycho","1024","2","48000","-16","experiment","999","odd","CROW","NA","NA","NA","NA","36941.54716600315","2556.1982080107555","37517.65200000955","35310.730249999324","2570.190166006796","3085.220458015101","3584.2939580034","NA","NA","38271.72154100845","38425.83600000944","38172.31570801232","38237.99108300591","4132.774208002957","38205.92766601476","38271.605083020404","NA","37515.063500002725","Class2","7","10936.455375049263","18","yes","1024","4"
"unrelated","42.10526315789474","42.10526315789474","589.1338180027608","589.1338180027608","black","psycho","natural","psycho","psycho","0","uniform","1","undefined","undefined","undefined","1","n","NA","NA","NA","NA","18","0","18","18","0","0","0","NA","NA","18","18","18","18","0","18","18","0","18","Thu Nov 24 11:48:55 2022","The main experiment item","yes","NA","Class2_2022.osexp","/Users/ethan/Documents/GitHub/OpenSesame/Class2","no","mono","no","18","no","white","no","no","768","psycho","18","18","/Users/ethan/Documents/GitHub/OpenSesame/Class2/quickrun.csv","psycho","Lentiform Loewenfeld","3.3.12","BIKE","0","n","space","space","space","NA","NA","n","257.087167003192","493.04258401389234","487.69829198135994","547.1452079946175","NA","NA","257.087167003192","2","psycho","1024","2","48000","-16","experiment","999","odd","VINE","NA","NA","NA","NA","38430.36154101719","2556.1982080107555","38997.004708013264","35310.730249999324","2570.190166006796","3085.220458015101","3584.2939580034","NA","NA","39750.972291018115","40009.22645800165","39651.74670799752","39717.37091601244","4132.774208002957","39685.28787500691","39750.85708301049","NA","38994.36054099351","Class2","8","11193.542542052455","19","yes","1024","4"
"one_modification","40","40","562.1482854534406","562.1482854534406","black","psycho","manmade","psycho","psycho","0","uniform","0","undefined","undefined","undefined","0","m","NA","NA","NA","NA","19","0","19","19","0","0","0","NA","NA","19","19","19","19","0","19","19","0","19","Thu Nov 24 11:48:55 2022","The main experiment item","yes","NA","Class2_2022.osexp","/Users/ethan/Documents/GitHub/OpenSesame/Class2","no","mono","no","18","no","white","no","no","768","psycho","19","19","/Users/ethan/Documents/GitHub/OpenSesame/Class2/quickrun.csv","psycho","Lentiform Loewenfeld","3.3.12","CAK3","0","n","space","space","space","NA","NA","n","49.42316701635718","493.04258401389234","487.69829198135994","547.1452079946175","NA","NA","49.42316701635718","2","psycho","1024","2","48000","-16","experiment","999","odd","CAKE","NA","NA","NA","NA","40012.569125014124","2556.1982080107555","40587.12416602066","35310.730249999324","2570.190166006796","3085.220458015101","3584.2939580034","NA","NA","41340.94808300142","41391.70616600313","41241.644333000295","41307.38012501388","4132.774208002957","41275.24787501898","41340.825040999334","NA","40579.786040994804","Class2","8","11242.965709068812","20","yes","1024","4"
"exact","42.857142857142854","42.857142857142854","540.3207381466581","540.3207381466581","black","psycho","natural","psycho","psycho","0","uniform","1","undefined","undefined","undefined","1","n","NA","NA","NA","NA","20","0","20","20","0","0","0","NA","NA","20","20","20","20","0","20","20","0","20","Thu Nov 24 11:48:55 2022","The main experiment item","yes","NA","Class2_2022.osexp","/Users/ethan/Documents/GitHub/OpenSesame/Class2","no","mono","no","18","no","white","no","no","768","psycho","20","20","/Users/ethan/Documents/GitHub/OpenSesame/Class2/quickrun.csv","psycho","Lentiform Loewenfeld","3.3.12","TICK","0","n","space","space","space","NA","NA","n","103.76979201100767","493.04258401389234","487.69829198135994","547.1452079946175","NA","NA","103.76979201100767","2","psycho","1024","2","48000","-16","experiment","999","odd","TICK","NA","NA","NA","NA","40012.569125014124","2556.1982080107555","41961.43049999955","41394.38695801073","2570.190166006796","3085.220458015101","3584.2939580034","NA","NA","42714.20233300887","42819.267415994545","42615.01158299507","42680.59133301722","4132.774208002957","42648.62849999918","42714.08100001281","NA","41958.28758299467","Class2","9","11346.73550107982","21","yes","1024","4"
"two_modifications","40.90909090909091","40.90909090909091","526.9514565033288","526.9514565033288","black","psycho","manmade","psycho","psycho","0","uniform","0","undefined","undefined","undefined","0","m","NA","NA","NA","NA","21","0","21","21","0","0","0","NA","NA","21","21","21","21","0","21","21","0","21","Thu Nov 24 11:48:55 2022","The main experiment item","yes","NA","Class2_2022.osexp","/Users/ethan/Documents/GitHub/OpenSesame/Class2","no","mono","no","18","no","white","no","no","768","psycho","21","21","/Users/ethan/Documents/GitHub/OpenSesame/Class2/quickrun.csv","psycho","Lentiform Loewenfeld","3.3.12","V4S3","0","n","space","space","space","NA","NA","n","246.19654199341312","493.04258401389234","487.69829198135994","547.1452079946175","NA","NA","246.19654199341312","2","psycho","1024","2","48000","-16","experiment","999","odd","VASE","NA","NA","NA","NA","42822.978875017725","2556.1982080107555","43389.59041601629","41394.38695801073","2570.190166006796","3085.220458015101","3584.2939580034","NA","NA","44143.53754100739","44390.78812501975","44044.0270830004","44109.9310410209","4132.774208002957","44077.92983300169","44143.41725001577","NA","43386.55175000895","Class2","9","11592.932043073233","22","yes","1024","4"
"exact","43.47826086956522","43.47826086956522","516.2466613072194","516.2466613072194","black","psycho","natural","psycho","psycho","0","uniform","1","undefined","undefined","undefined","1","n","NA","NA","NA","NA","22","0","22","22","0","0","0","NA","NA","22","22","22","22","0","22","22","0","22","Thu Nov 24 11:48:55 2022","The main experiment item","yes","NA","Class2_2022.osexp","/Users/ethan/Documents/GitHub/OpenSesame/Class2","no","mono","no","18","no","white","no","no","768","psycho","22","22","/Users/ethan/Documents/GitHub/OpenSesame/Class2/quickrun.csv","psycho","Lentiform Loewenfeld","3.3.12","TUNA","0","n","space","space","space","NA","NA","n","280.7411669928115","493.04258401389234","487.69829198135994","547.1452079946175","NA","NA","280.7411669928115","2","psycho","1024","2","48000","-16","experiment","999","odd","TUNA","NA","NA","NA","NA","42822.978875017725","2556.1982080107555","44962.00262501952","44394.579707994126","2570.190166006796","3085.220458015101","3584.2939580034","NA","NA","45717.02979100519","45998.9770000102","45617.7507500106","45683.28804100747","4132.774208002957","45651.23262500856","45716.916791017866","NA","44959.16062500328","Class2","10","11873.673210066045","23","yes","1024","4"
"two_modifications","45.833333333333336","45.833333333333336","508.0554722941694","508.0554722941694","black","psycho","manmade","psycho","psycho","0","uniform","1","undefined","undefined","undefined","1","m","NA","NA","NA","NA","23","0","23","23","0","0","0","NA","NA","23","23","23","23","0","23","23","0","23","Thu Nov 24 11:48:55 2022","The main experiment item","yes","NA","Class2_2022.osexp","/Users/ethan/Documents/GitHub/OpenSesame/Class2","no","mono","no","18","no","white","no","no","768","psycho","23","23","/Users/ethan/Documents/GitHub/OpenSesame/Class2/quickrun.csv","psycho","Lentiform Loewenfeld","3.3.12","S1N>|","0","m","space","space","space","NA","NA","m","319.6581249940209","493.04258401389234","487.69829198135994","547.1452079946175","NA","NA","319.6581249940209","2","psycho","1024","2","48000","-16","experiment","999","odd","SINK","NA","NA","NA","NA","46001.78641601815","2556.1982080107555","46569.63533299859","44394.579707994126","2570.190166006796","3085.220458015101","3584.2939580034","NA","NA","47323.6813750118","47644.84625001205","47224.3595829932","47289.978750020964","4132.774208002957","47257.88587500574","47323.56250000885","NA","46566.77283300087","Class2","11","12193.331335060066","24","yes","1024","4"
"exact","44","44","506.8004584033042","506.8004584033042","black","psycho","manmade","psycho","psycho","0","uniform","0","undefined","undefined","undefined","0","m","NA","NA","NA","NA","24","0","24","24","0","0","0","NA","NA","24","24","24","24","0","24","24","0","24","Thu Nov 24 11:48:55 2022","The main experiment item","yes","NA","Class2_2022.osexp","/Users/ethan/Documents/GitHub/OpenSesame/Class2","no","mono","no","18","no","white","no","no","768","psycho","24","24","/Users/ethan/Documents/GitHub/OpenSesame/Class2/quickrun.csv","psycho","Lentiform Loewenfeld","3.3.12","LAMP","0","n","space","space","space","NA","NA","n","476.68012502253987","493.04258401389234","487.69829198135994","547.1452079946175","NA","NA","476.68012502253987","2","psycho","1024","2","48000","-16","experiment","999","odd","LAMP","NA","NA","NA","NA","47647.6462080027","2556.1982080107555","48215.71458299877","44394.579707994126","2570.190166006796","3085.220458015101","3584.2939580034","NA","NA","48969.2225829931","49447.11358300992","48870.239833020605","48935.68579101702","4132.774208002957","48903.7706660165","48969.097833003616","NA","48211.95241599344","Class2","11","12670.011460082605","25","yes","1024","4"
"one_modification","42.30769230769231","42.30769230769231","500.23584942615486","500.23584942615486","black","psycho","manmade","psycho","psycho","0","uniform","0","undefined","undefined","undefined","0","m","NA","NA","NA","NA","25","0","25","25","0","0","0","NA","NA","25","25","25","25","0","25","25","0","25","Thu Nov 24 11:48:55 2022","The main experiment item","yes","NA","Class2_2022.osexp","/Users/ethan/Documents/GitHub/OpenSesame/Class2","no","mono","no","18","no","white","no","no","768","psycho","25","25","/Users/ethan/Documents/GitHub/OpenSesame/Class2/quickrun.csv","psycho","Lentiform Loewenfeld","3.3.12",",_|EEP","0","n","space","space","space","NA","NA","n","336.12062499742024","493.04258401389234","487.69829198135994","547.1452079946175","NA","NA","336.12062499742024","2","psycho","1024","2","48000","-16","experiment","999","odd","JEEP","NA","NA","NA","NA","47647.6462080027","2556.1982080107555","50017.67983302125","49450.67950000521","2570.190166006796","3085.220458015101","3584.2939580034","NA","NA","50770.403541013366","51107.73970800801","50671.18112501339","50736.7303330102","4132.774208002957","50704.739458014956","50770.200708007906","NA","50015.70891600568","Class2","11","13006.132085080026","26","yes","1024","4"
"unrelated","40.74074074074074","40.74074074074074","490.9664768913192","490.9664768913192","black","psycho","manmade","psycho","psycho","0","uniform","0","undefined","undefined","undefined","0","m","NA","NA","NA","NA","26","0","26","26","0","0","0","NA","NA","26","26","26","26","0","26","26","0","26","Thu Nov 24 11:48:55 2022","The main experiment item","yes","NA","Class2_2022.osexp","/Users/ethan/Documents/GitHub/OpenSesame/Class2","no","mono","no","18","no","white","no","no","768","psycho","26","26","/Users/ethan/Documents/GitHub/OpenSesame/Class2/quickrun.csv","psycho","Lentiform Loewenfeld","3.3.12","LION","0","n","space","space","space","NA","NA","n","249.9627909855917","493.04258401389234","487.69829198135994","547.1452079946175","NA","NA","249.9627909855917","2","psycho","1024","2","48000","-16","experiment","999","odd","VASE","NA","NA","NA","NA","47647.6462080027","2556.1982080107555","51685.25450001471","51111.5375829977","2570.190166006796","3085.220458015101","3584.2939580034","NA","NA","52438.59100001282","52690.1574160147","52339.453499997035","52405.02537501743","4132.774208002957","52372.91187501978","52438.46079101786","NA","51683.167750015855","Class2","11","13256.094876065617","27","yes","1024","4"
"exact","39.285714285714285","39.285714285714285","477.81718753789653","477.81718753789653","black","psycho","manmade","psycho","psycho","0","uniform","0","undefined","undefined","undefined","0","m","NA","NA","NA","NA","27","0","27","27","0","0","0","NA","NA","27","27","27","27","0","27","27","0","27","Thu Nov 24 11:48:55 2022","The main experiment item","yes","NA","Class2_2022.osexp","/Users/ethan/Documents/GitHub/OpenSesame/Class2","no","mono","no","18","no","white","no","no","768","psycho","27","27","/Users/ethan/Documents/GitHub/OpenSesame/Class2/quickrun.csv","psycho","Lentiform Loewenfeld","3.3.12","OVEN","0","n","space","space","space","NA","NA","n","122.78637499548495","493.04258401389234","487.69829198135994","547.1452079946175","NA","NA","122.78637499548495","2","psycho","1024","2","48000","-16","experiment","999","odd","OVEN","NA","NA","NA","NA","47647.6462080027","2556.1982080107555","53259.9992910109","52693.12304101186","2570.190166006796","3085.220458015101","3584.2939580034","NA","NA","54013.40091601014","54137.404333014274","53914.00866600452","53979.63695801445","4132.774208002957","53947.51504101441","54013.28387501417","NA","53257.20379099948","Class2","11","13378.881251061102","28","yes","1024","4"
"two_modifications","37.93103448275862","37.93103448275862","464.6936724502352","464.6936724502352","black","psycho","manmade","psycho","psycho","0","uniform","0","undefined","undefined","undefined","0","m","NA","NA","NA","NA","28","0","28","28","0","0","0","NA","NA","28","28","28","28","0","28","28","0","28","Thu Nov 24 11:48:55 2022","The main experiment item","yes","NA","Class2_2022.osexp","/Users/ethan/Documents/GitHub/OpenSesame/Class2","no","mono","no","18","no","white","no","no","768","psycho","28","28","/Users/ethan/Documents/GitHub/OpenSesame/Class2/quickrun.csv","psycho","Lentiform Loewenfeld","3.3.12",")1SH","0","n","space","space","space","NA","NA","n","97.23524999571964","493.04258401389234","487.69829198135994","547.1452079946175","NA","NA","97.23524999571964","2","psycho","1024","2","48000","-16","experiment","999","odd","DISH","NA","NA","NA","NA","47647.6462080027","2556.1982080107555","54713.67600001395","54141.19095800561","2570.190166006796","3085.220458015101","3584.2939580034","NA","NA","55467.387750017224","55565.803416015115","55368.12870801077","55433.85620799381","4132.774208002957","55401.74475000822","55467.270249995636","NA","54710.45079099713","Class2","11","13476.116501056822","29","yes","1024","4"
"unrelated","36.666666666666664","36.666666666666664","451.91443893515196","451.91443893515196","black","psycho","manmade","psycho","psycho","0","uniform","0","undefined","undefined","undefined","0","m","NA","NA","NA","NA","29","0","29","29","0","0","0","NA","NA","29","29","29","29","0","29","29","0","29","Thu Nov 24 11:48:55 2022","The main experiment item","yes","NA","Class2_2022.osexp","/Users/ethan/Documents/GitHub/OpenSesame/Class2","no","mono","no","18","no","white","no","no","768","psycho","29","29","/Users/ethan/Documents/GitHub/OpenSesame/Class2/quickrun.csv","psycho","Lentiform Loewenfeld","3.3.12","KNEE","0","n","space","space","space","NA","NA","n","81.31666699773632","493.04258401389234","487.69829198135994","547.1452079946175","NA","NA","81.31666699773632","2","psycho","1024","2","48000","-16","experiment","999","odd","CAKE","NA","NA","NA","NA","47647.6462080027","2556.1982080107555","56136.82804099517","55569.5454160159","2570.190166006796","3085.220458015101","3584.2939580034","NA","NA","56890.23883300251","56972.876500018174","56790.54275000817","56856.45204101456","4132.774208002957","56824.16025002021","56890.11262499844","NA","56133.902958012186","Class2","11","13557.433168054558","30","yes","1024","4"
"exact","35.483870967741936","35.483870967741936","446.96670971086036","446.96670971086036","black","psycho","manmade","psycho","psycho","0","uniform","0","undefined","undefined","undefined","0","m","NA","NA","NA","NA","30","0","30","30","0","0","0","NA","NA","30","30","30","30","0","30","30","0","30","Thu Nov 24 11:48:55 2022","The main experiment item","yes","NA","Class2_2022.osexp","/Users/ethan/Documents/GitHub/OpenSesame/Class2","no","mono","no","18","no","white","no","no","768","psycho","30","30","/Users/ethan/Documents/GitHub/OpenSesame/Class2/quickrun.csv","psycho","Lentiform Loewenfeld","3.3.12","VASE","0","n","space","space","space","NA","NA","n","298.5348329821136","493.04258401389234","487.69829198135994","547.1452079946175","NA","NA","298.5348329821136","2","psycho","1024","2","48000","-16","experiment","999","odd","VASE","NA","NA","NA","NA","47647.6462080027","2556.1982080107555","57543.90783299459","56975.73491602088","2570.190166006796","3085.220458015101","3584.2939580034","NA","NA","58297.920208016876","58597.65533299651","58198.608083010186","58264.28666600259","4132.774208002957","58232.162583008176","58297.77274999651","NA","57540.25362501852","Class2","11","13855.968001036672","31","yes","1024","4"
"exact","34.375","34.375","440.01132165703893","440.01132165703893","black","psycho","manmade","psycho","psycho","0","uniform","0","undefined","undefined","undefined","0","m","NA","NA","NA","NA","31","0","31","31","0","0","0","NA","NA","31","31","31","31","0","31","31","0","31","Thu Nov 24 11:48:55 2022","The main experiment item","yes","NA","Class2_2022.osexp","/Users/ethan/Documents/GitHub/OpenSesame/Class2","no","mono","no","18","no","white","no","no","768","psycho","31","31","/Users/ethan/Documents/GitHub/OpenSesame/Class2/quickrun.csv","psycho","Lentiform Loewenfeld","3.3.12","CAKE","0","n","space","space","space","NA","NA","n","224.39429198857397","493.04258401389234","487.69829198135994","547.1452079946175","NA","NA","224.39429198857397","2","psycho","1024","2","48000","-16","experiment","999","odd","CAKE","NA","NA","NA","NA","47647.6462080027","2556.1982080107555","59167.75725001935","58601.205208018655","2570.190166006796","3085.220458015101","3584.2939580034","NA","NA","59920.89466602192","60146.29595799488","59821.40983300633","59887.04708300065","4132.774208002957","59855.00295800739","59920.774791011354","NA","59165.052666008705","Class2","11","14080.362293025246","32","yes","1024","4"
"two_modifications","36.36363636363637","36.36363636363637","431.9823687282306","431.9823687282306","black","psycho","natural","psycho","psycho","0","uniform","1","undefined","undefined","undefined","1","n","NA","NA","NA","NA","32","0","32","32","0","0","0","NA","NA","32","32","32","32","0","32","32","0","32","Thu Nov 24 11:48:55 2022","The main experiment item","yes","NA","Class2_2022.osexp","/Users/ethan/Documents/GitHub/OpenSesame/Class2","no","mono","no","18","no","white","no","no","768","psycho","32","32","/Users/ethan/Documents/GitHub/OpenSesame/Class2/quickrun.csv","psycho","Lentiform Loewenfeld","3.3.12","V1^/E","0","n","space","space","space","NA","NA","n","175.05587500636466","493.04258401389234","487.69829198135994","547.1452079946175","NA","NA","175.05587500636466","2","psycho","1024","2","48000","-16","experiment","999","odd","VINE","NA","NA","NA","NA","47647.6462080027","2556.1982080107555","60718.32066599745","60149.85145800165","2570.190166006796","3085.220458015101","3584.2939580034","NA","NA","61472.64304099372","61648.810625018086","61372.8597080044","61438.87133299722","4132.774208002957","61406.58599999733","61472.509625018574","NA","60714.26762500778","Class2","12","14255.41816803161","33","yes","1024","4"
"exact","35.294117647058826","35.294117647058826","422.5563100891818","422.5563100891818","black","psycho","manmade","psycho","psycho","0","uniform","0","undefined","undefined","undefined","0","m","NA","NA","NA","NA","33","0","33","33","0","0","0","NA","NA","33","33","33","33","0","33","33","0","33","Thu Nov 24 11:48:55 2022","The main experiment item","yes","NA","Class2_2022.osexp","/Users/ethan/Documents/GitHub/OpenSesame/Class2","no","mono","no","18","no","white","no","no","768","psycho","33","33","/Users/ethan/Documents/GitHub/OpenSesame/Class2/quickrun.csv","psycho","Lentiform Loewenfeld","3.3.12","COAT","0","n","space","space","space","NA","NA","n","111.49637500056997","493.04258401389234","487.69829198135994","547.1452079946175","NA","NA","111.49637500056997","2","psycho","1024","2","48000","-16","experiment","999","odd","COAT","NA","NA","NA","NA","61652.47270799591","2556.1982080107555","62220.39733300335","60149.85145800165","2570.190166006796","3085.220458015101","3584.2939580034","NA","NA","62973.60029100673","63086.36075002141","62874.07633301336","62940.04675000906","4132.774208002957","62907.85845799837","62973.48229101044","NA","62216.69733300223","Class2","12","14366.91454303218","34","yes","1024","4"
"one_modification","37.142857142857146","37.142857142857146","415.63687980108494","415.63687980108494","black","psycho","natural","psycho","psycho","0","uniform","1","undefined","undefined","undefined","1","n","NA","NA","NA","NA","34","0","34","34","0","0","0","NA","NA","34","34","34","34","0","34","34","0","34","Thu Nov 24 11:48:55 2022","The main experiment item","yes","NA","Class2_2022.osexp","/Users/ethan/Documents/GitHub/OpenSesame/Class2","no","mono","no","18","no","white","no","no","768","psycho","34","34","/Users/ethan/Documents/GitHub/OpenSesame/Class2/quickrun.csv","psycho","Lentiform Loewenfeld","3.3.12","TIC|<","0","n","space","space","space","NA","NA","n","180.37625000579283","493.04258401389234","487.69829198135994","547.1452079946175","NA","NA","180.37625000579283","2","psycho","1024","2","48000","-16","experiment","999","odd","TICK","NA","NA","NA","NA","61652.47270799591","2556.1982080107555","63658.49670799798","63089.94058301323","2570.190166006796","3085.220458015101","3584.2939580034","NA","NA","64413.621000014246","64595.17929100548","64313.357875013025","64379.900791012915","4132.774208002957","64347.00891599641","64413.424791011494","NA","63654.39779101871","Class2","13","14547.290793037973","35","yes","1024","4"
"two_modifications","36.111111111111114","36.111111111111114","410.76650005642375","410.76650005642375","black","psycho","manmade","psycho","psycho","0","uniform","0","undefined","undefined","undefined","0","m","NA","NA","NA","NA","35","0","35","35","0","0","0","NA","NA","35","35","35","35","0","35","35","0","35","Thu Nov 24 11:48:55 2022","The main experiment item","yes","NA","Class2_2022.osexp","/Users/ethan/Documents/GitHub/OpenSesame/Class2","no","mono","no","18","no","white","no","no","768","psycho","35","35","/Users/ethan/Documents/GitHub/OpenSesame/Class2/quickrun.csv","psycho","Lentiform Loewenfeld","3.3.12","OV3И","0","n","space","space","space","NA","NA","n","240.30320899328217","493.04258401389234","487.69829198135994","547.1452079946175","NA","NA","240.30320899328217","2","psycho","1024","2","48000","-16","experiment","999","odd","OVEN","NA","NA","NA","NA","64599.30962501676","2556.1982080107555","65171.03629099438","63089.94058301323","2570.190166006796","3085.220458015101","3584.2939580034","NA","NA","65925.41504101246","66166.9182080077","65825.51441600663","65891.66837499943","4132.774208002957","65859.21437499928","65925.29341601767","NA","65167.26441599894","Class2","13","14787.594002031256","36","yes","1024","4"
"two_modifications","35.13513513513514","35.13513513513514","405.4880912708295","405.4880912708295","black","psycho","manmade","psycho","psycho","0","uniform","0","undefined","undefined","undefined","0","m","NA","NA","NA","NA","36","0","36","36","0","0","0","NA","NA","36","36","36","36","0","36","36","0","36","Thu Nov 24 11:48:55 2022","The main experiment item","yes","NA","Class2_2022.osexp","/Users/ethan/Documents/GitHub/OpenSesame/Class2","no","mono","no","18","no","white","no","no","768","psycho","36","36","/Users/ethan/Documents/GitHub/OpenSesame/Class2/quickrun.csv","psycho","Lentiform Loewenfeld","3.3.12","J3E|*","0","n","space","space","space","NA","NA","n","215.46537498943508","493.04258401389234","487.69829198135994","547.1452079946175","NA","NA","215.46537498943508","2","psycho","1024","2","48000","-16","experiment","999","odd","JEEP","NA","NA","NA","NA","64599.30962501676","2556.1982080107555","66738.36370802019","66170.61541602015","2570.190166006796","3085.220458015101","3584.2939580034","NA","NA","67492.32212500647","67709.00754100876","67393.08362500742","67458.73004102032","4132.774208002957","67426.62737501087","67492.20220799907","NA","66734.85929099843","Class2","13","15003.05937702069","37","yes","1024","4"
"unrelated","36.8421052631579","36.8421052631579","399.38471936942443","399.38471936942443","black","psycho","natural","psycho","psycho","0","uniform","1","undefined","undefined","undefined","1","n","NA","NA","NA","NA","37","0","37","37","0","0","0","NA","NA","37","37","37","37","0","37","37","0","37","Thu Nov 24 11:48:55 2022","The main experiment item","yes","NA","Class2_2022.osexp","/Users/ethan/Documents/GitHub/OpenSesame/Class2","no","mono","no","18","no","white","no","no","768","psycho","37","37","/Users/ethan/Documents/GitHub/OpenSesame/Class2/quickrun.csv","psycho","Lentiform Loewenfeld","3.3.12","CORD","0","n","space","space","space","NA","NA","n","173.5599590174388","493.04258401389234","487.69829198135994","547.1452079946175","NA","NA","173.5599590174388","2","psycho","1024","2","48000","-16","experiment","999","odd","TREE","NA","NA","NA","NA","64599.30962501676","2556.1982080107555","68280.651958019","67713.19675000268","2570.190166006796","3085.220458015101","3584.2939580034","NA","NA","69034.9712909956","69209.6697500092","68934.25962500623","69001.26354099484","4132.774208002957","68969.0498750133","69034.8559160193","NA","68277.11054100655","Class2","14","15176.61933603813","38","yes","1024","4"
"unrelated","35.8974358974359","35.8974358974359","390.30437400110833","390.30437400110833","black","psycho","manmade","psycho","psycho","0","uniform","0","undefined","undefined","undefined","0","m","NA","NA","NA","NA","38","0","38","38","0","0","0","NA","NA","38","38","38","38","0","38","38","0","38","Thu Nov 24 11:48:55 2022","The main experiment item","yes","NA","Class2_2022.osexp","/Users/ethan/Documents/GitHub/OpenSesame/Class2","no","mono","no","18","no","white","no","no","768","psycho","38","38","/Users/ethan/Documents/GitHub/OpenSesame/Class2/quickrun.csv","psycho","Lentiform Loewenfeld","3.3.12","FROG","0","n","space","space","space","NA","NA","n","45.251250005094334","493.04258401389234","487.69829198135994","547.1452079946175","NA","NA","45.251250005094334","2","psycho","1024","2","48000","-16","experiment","999","odd","LAMP","NA","NA","NA","NA","69213.16954100621","2556.1982080107555","69783.31600001547","67713.19675000268","2570.190166006796","3085.220458015101","3584.2939580034","NA","NA","70537.39133299678","70583.91020802082","70437.9413750139","70503.48899999517","4132.774208002957","70471.47350001615","70537.24875001353","NA","69777.88845801842","Class2","14","15221.870586043224","39","yes","1024","4"
"unrelated","37.5","37.5","384.0488729758363","384.0488729758363","black","psycho","manmade","psycho","psycho","0","uniform","1","undefined","undefined","undefined","1","m","NA","NA","NA","NA","39","0","39","39","0","0","0","NA","NA","39","39","39","39","0","39","39","0","39","Thu Nov 24 11:48:55 2022","The main experiment item","yes","NA","Class2_2022.osexp","/Users/ethan/Documents/GitHub/OpenSesame/Class2","no","mono","no","18","no","white","no","no","768","psycho","39","39","/Users/ethan/Documents/GitHub/OpenSesame/Class2/quickrun.csv","psycho","Lentiform Loewenfeld","3.3.12","BOOT","0","m","space","space","space","NA","NA","m","140.08433299022727","493.04258401389234","487.69829198135994","547.1452079946175","NA","NA","140.08433299022727","2","psycho","1024","2","48000","-16","experiment","999","odd","DISH","NA","NA","NA","NA","69213.16954100621","2556.1982080107555","71153.85145801702","70586.66008300497","2570.190166006796","3085.220458015101","3584.2939580034","NA","NA","71908.75458301161","72050.41083300603","71809.40329100122","71875.09912499809","4132.774208002957","71842.98929100623","71908.6367910204","NA","71150.735541014","Class2","15","15361.954919033451","40","yes","1024","4"
"unrelated","36.58536585365854","36.58536585365854","374.89795534184384","374.89795534184384","black","psycho","natural","psycho","psycho","0","uniform","0","undefined","undefined","undefined","0","n","NA","NA","NA","NA","40","0","40","40","0","0","0","NA","NA","40","40","40","40","0","40","40","0","40","Thu Nov 24 11:48:55 2022","The main experiment item","yes","NA","Class2_2022.osexp","/Users/ethan/Documents/GitHub/OpenSesame/Class2","no","mono","no","18","no","white","no","no","768","psycho","40","40","/Users/ethan/Documents/GitHub/OpenSesame/Class2/quickrun.csv","psycho","Lentiform Loewenfeld","3.3.12","PLOT","0","m","space","space","space","NA","NA","m","8.861249982146546","493.04258401389234","487.69829198135994","547.1452079946175","NA","NA","8.861249982146546","2","psycho","1024","2","48000","-16","experiment","999","odd","BEAK","NA","NA","NA","NA","72053.57375001768","2556.1982080107555","72620.72525001713","70586.66008300497","2570.190166006796","3085.220458015101","3584.2939580034","NA","NA","73375.06658301572","73385.19854101469","73275.41612501955","73341.22825000668","4132.774208002957","73309.09258301836","73374.93762501981","NA","72617.63049999718","Class2","15","15370.816169015598","41","yes","1024","4"
